{
  "Entries": [
    {
      "RequestUri": "https://endpoint/language/analyze-text/jobs?api-version=2022-04-01-preview",
      "RequestMethod": "POST",
      "RequestHeaders": {
        "Accept": "application/json",
        "Accept-Encoding": "gzip, deflate, br",
        "Accept-Language": "en-US",
        "Connection": "keep-alive",
        "Content-Length": "413",
        "Content-Type": "application/json",
        "ocp-apim-subscription-key": "api_key",
        "Referer": "http://localhost:9876/",
        "sec-ch-ua": "",
        "sec-ch-ua-mobile": "?0",
        "sec-ch-ua-platform": "",
        "Sec-Fetch-Dest": "empty",
        "Sec-Fetch-Mode": "cors",
        "Sec-Fetch-Site": "same-site",
        "User-Agent": "Mozilla/5.0 (X11; Linux x86_64) AppleWebKit/537.36 (KHTML, like Gecko) HeadlessChrome/103.0.5058.0 Safari/537.36",
        "x-ms-client-request-id": "18971468-48ed-4a21-aa93-59d9fb8d19a4",
        "x-ms-useragent": "azsdk-js-ai-language-text/1.0.0-beta.1 core-rest-pipeline/1.9.1 OS/Linuxx86_64"
      },
      "RequestBody": {
        "analysisInput": {
          "documents": [
            {
              "id": "0",
              "text": "Patient does not suffer from high blood pressure.",
              "language": "en"
            },
            {
              "id": "1",
              "text": "Prescribed 100mg ibuprofen, taken twice daily.",
              "language": "en"
            },
            {
              "id": "2",
              "text": "Baby not likely to have Meningitis. in case of fever in the mother, consider Penicillin for the baby too.",
              "language": "en"
            }
          ]
        },
        "tasks": [
          {
            "kind": "Healthcare",
            "parameters": {
              "fhirVersion": "4.0.1"
            }
          }
        ]
      },
      "StatusCode": 202,
      "ResponseHeaders": {
        "apim-request-id": "540b680c-40ac-42f5-b5e8-71fd63d6d1d6",
        "Content-Length": "0",
        "Date": "Wed, 27 Jul 2022 17:51:46 GMT",
        "operation-location": "https://endpoint/language/analyze-text/jobs/ceccef01-5084-49d7-9b19-c06d3138814f?api-version=2022-04-01-preview",
        "Strict-Transport-Security": "max-age=31536000; includeSubDomains; preload",
        "warn-agent": "-",
        "warn-code": "299",
        "warn-text": "Microsoft Cognitive Services Language APIs version 2022-04-01-preview is retired and will be removed by Dec 1, 2022. The latest supported version is 2022-05-01. For more information please check http://aka.ms/language-api-versions.",
        "X-Content-Type-Options": "nosniff",
        "x-envoy-upstream-service-time": "155"
      },
      "ResponseBody": null
    },
    {
      "RequestUri": "https://endpoint/language/analyze-text/jobs/ceccef01-5084-49d7-9b19-c06d3138814f?api-version=2022-04-01-preview",
      "RequestMethod": "GET",
      "RequestHeaders": {
        "Accept": "application/json",
        "Accept-Encoding": "gzip, deflate, br",
        "Accept-Language": "en-US",
        "Connection": "keep-alive",
        "ocp-apim-subscription-key": "api_key",
        "Referer": "http://localhost:9876/",
        "sec-ch-ua": "",
        "sec-ch-ua-mobile": "?0",
        "sec-ch-ua-platform": "",
        "Sec-Fetch-Dest": "empty",
        "Sec-Fetch-Mode": "cors",
        "Sec-Fetch-Site": "same-site",
        "User-Agent": "Mozilla/5.0 (X11; Linux x86_64) AppleWebKit/537.36 (KHTML, like Gecko) HeadlessChrome/103.0.5058.0 Safari/537.36",
        "x-ms-client-request-id": "ecd35b9a-c2c6-486f-99d6-2cd1377867a0",
        "x-ms-useragent": "azsdk-js-ai-language-text/1.0.0-beta.1 core-rest-pipeline/1.9.1 OS/Linuxx86_64"
      },
      "RequestBody": null,
      "StatusCode": 200,
      "ResponseHeaders": {
        "apim-request-id": "37d893bf-391d-4c77-b3f2-b745f3493e4d",
        "Content-Length": "282",
        "Content-Type": "application/json; charset=utf-8",
        "Date": "Wed, 27 Jul 2022 17:51:47 GMT",
        "Strict-Transport-Security": "max-age=31536000; includeSubDomains; preload",
        "warn-agent": "-",
        "warn-code": "299",
        "warn-text": "Microsoft Cognitive Services Language APIs version 2022-04-01-preview is retired and will be removed by Dec 1, 2022. The latest supported version is 2022-05-01. For more information please check http://aka.ms/language-api-versions.",
        "X-Content-Type-Options": "nosniff",
        "x-envoy-upstream-service-time": "12"
      },
      "ResponseBody": {
        "jobId": "ceccef01-5084-49d7-9b19-c06d3138814f",
        "lastUpdateDateTime": "2022-07-27T17:51:47Z",
        "createdDateTime": "2022-07-27T17:51:47Z",
        "expirationDateTime": "2022-07-28T17:51:47Z",
        "status": "notStarted",
        "errors": [],
        "tasks": {
          "completed": 0,
          "failed": 0,
          "inProgress": 1,
          "total": 1,
          "items": []
        }
      }
    },
    {
      "RequestUri": "https://endpoint/language/analyze-text/jobs/ceccef01-5084-49d7-9b19-c06d3138814f?api-version=2022-04-01-preview",
      "RequestMethod": "GET",
      "RequestHeaders": {
        "Accept": "application/json",
        "Accept-Encoding": "gzip, deflate, br",
        "Accept-Language": "en-US",
        "Connection": "keep-alive",
        "ocp-apim-subscription-key": "api_key",
        "Referer": "http://localhost:9876/",
        "sec-ch-ua": "",
        "sec-ch-ua-mobile": "?0",
        "sec-ch-ua-platform": "",
        "Sec-Fetch-Dest": "empty",
        "Sec-Fetch-Mode": "cors",
        "Sec-Fetch-Site": "same-site",
        "User-Agent": "Mozilla/5.0 (X11; Linux x86_64) AppleWebKit/537.36 (KHTML, like Gecko) HeadlessChrome/103.0.5058.0 Safari/537.36",
        "x-ms-client-request-id": "a1846503-2fcb-4a59-a4fe-1822cfd0af8c",
        "x-ms-useragent": "azsdk-js-ai-language-text/1.0.0-beta.1 core-rest-pipeline/1.9.1 OS/Linuxx86_64"
      },
      "RequestBody": null,
      "StatusCode": 200,
      "ResponseHeaders": {
        "apim-request-id": "a27a13ca-96b5-4fd0-9221-8e595f245575",
        "Content-Length": "279",
        "Content-Type": "application/json; charset=utf-8",
        "Date": "Wed, 27 Jul 2022 17:51:47 GMT",
        "Strict-Transport-Security": "max-age=31536000; includeSubDomains; preload",
        "warn-agent": "-",
        "warn-code": "299",
        "warn-text": "Microsoft Cognitive Services Language APIs version 2022-04-01-preview is retired and will be removed by Dec 1, 2022. The latest supported version is 2022-05-01. For more information please check http://aka.ms/language-api-versions.",
        "X-Content-Type-Options": "nosniff",
        "x-envoy-upstream-service-time": "9"
      },
      "ResponseBody": {
        "jobId": "ceccef01-5084-49d7-9b19-c06d3138814f",
        "lastUpdateDateTime": "2022-07-27T17:51:48Z",
        "createdDateTime": "2022-07-27T17:51:47Z",
        "expirationDateTime": "2022-07-28T17:51:47Z",
        "status": "running",
        "errors": [],
        "tasks": {
          "completed": 0,
          "failed": 0,
          "inProgress": 1,
          "total": 1,
          "items": []
        }
      }
    },
    {
      "RequestUri": "https://endpoint/language/analyze-text/jobs/ceccef01-5084-49d7-9b19-c06d3138814f?api-version=2022-04-01-preview",
      "RequestMethod": "GET",
      "RequestHeaders": {
        "Accept": "application/json",
        "Accept-Encoding": "gzip, deflate, br",
        "Accept-Language": "en-US",
        "Connection": "keep-alive",
        "ocp-apim-subscription-key": "api_key",
        "Referer": "http://localhost:9876/",
        "sec-ch-ua": "",
        "sec-ch-ua-mobile": "?0",
        "sec-ch-ua-platform": "",
        "Sec-Fetch-Dest": "empty",
        "Sec-Fetch-Mode": "cors",
        "Sec-Fetch-Site": "same-site",
        "User-Agent": "Mozilla/5.0 (X11; Linux x86_64) AppleWebKit/537.36 (KHTML, like Gecko) HeadlessChrome/103.0.5058.0 Safari/537.36",
        "x-ms-client-request-id": "333f81a4-d7b9-4f03-80ae-b87bdf22a97a",
        "x-ms-useragent": "azsdk-js-ai-language-text/1.0.0-beta.1 core-rest-pipeline/1.9.1 OS/Linuxx86_64"
      },
      "RequestBody": null,
      "StatusCode": 200,
      "ResponseHeaders": {
        "apim-request-id": "4518e778-7bfc-43e0-99be-093e06dbc02b",
        "Content-Length": "37756",
        "Content-Type": "application/json; charset=utf-8",
        "Date": "Wed, 27 Jul 2022 17:51:49 GMT",
        "Strict-Transport-Security": "max-age=31536000; includeSubDomains; preload",
        "warn-agent": "-",
        "warn-code": "299",
        "warn-text": "Microsoft Cognitive Services Language APIs version 2022-04-01-preview is retired and will be removed by Dec 1, 2022. The latest supported version is 2022-05-01. For more information please check http://aka.ms/language-api-versions.",
        "X-Content-Type-Options": "nosniff",
        "x-envoy-upstream-service-time": "43"
      },
      "ResponseBody": {
        "jobId": "ceccef01-5084-49d7-9b19-c06d3138814f",
        "lastUpdateDateTime": "2022-07-27T17:51:48Z",
        "createdDateTime": "2022-07-27T17:51:47Z",
        "expirationDateTime": "2022-07-28T17:51:47Z",
        "status": "succeeded",
        "errors": [],
        "tasks": {
          "completed": 1,
          "failed": 0,
          "inProgress": 0,
          "total": 1,
          "items": [
            {
              "kind": "HealthcareLROResults",
              "lastUpdateDateTime": "2022-07-27T17:51:48.8620806Z",
              "status": "succeeded",
              "results": {
                "documents": [
                  {
                    "id": "0",
                    "entities": [
                      {
                        "offset": 29,
                        "length": 19,
                        "text": "high blood pressure",
                        "category": "SymptomOrSign",
                        "confidenceScore": 1.0,
                        "assertion": {
                          "certainty": "negative"
                        },
                        "name": "Hypertensive disease",
                        "links": [
                          {
                            "dataSource": "UMLS",
                            "id": "C0020538"
                          },
                          {
                            "dataSource": "AOD",
                            "id": "0000023317"
                          },
                          {
                            "dataSource": "BI",
                            "id": "BI00001"
                          },
                          {
                            "dataSource": "CCPSS",
                            "id": "1017493"
                          },
                          {
                            "dataSource": "CCS",
                            "id": "7.1"
                          },
                          {
                            "dataSource": "CHV",
                            "id": "0000015800"
                          },
                          {
                            "dataSource": "COSTAR",
                            "id": "397"
                          },
                          {
                            "dataSource": "CSP",
                            "id": "0571-5243"
                          },
                          {
                            "dataSource": "CST",
                            "id": "HYPERTENS"
                          },
                          {
                            "dataSource": "DXP",
                            "id": "U002034"
                          },
                          {
                            "dataSource": "HPO",
                            "id": "HP:0000822"
                          },
                          {
                            "dataSource": "ICD10",
                            "id": "I10-I15.9"
                          },
                          {
                            "dataSource": "ICD10AM",
                            "id": "I10-I15.9"
                          },
                          {
                            "dataSource": "ICD10CM",
                            "id": "I10"
                          },
                          {
                            "dataSource": "ICD9CM",
                            "id": "997.91"
                          },
                          {
                            "dataSource": "ICPC2ICD10ENG",
                            "id": "MTHU035456"
                          },
                          {
                            "dataSource": "ICPC2P",
                            "id": "K85004"
                          },
                          {
                            "dataSource": "LCH",
                            "id": "U002317"
                          },
                          {
                            "dataSource": "LCH_NW",
                            "id": "sh85063723"
                          },
                          {
                            "dataSource": "LNC",
                            "id": "LA14293-7"
                          },
                          {
                            "dataSource": "MDR",
                            "id": "10020772"
                          },
                          {
                            "dataSource": "MEDCIN",
                            "id": "33288"
                          },
                          {
                            "dataSource": "MEDLINEPLUS",
                            "id": "34"
                          },
                          {
                            "dataSource": "MSH",
                            "id": "D006973"
                          },
                          {
                            "dataSource": "MTH",
                            "id": "005"
                          },
                          {
                            "dataSource": "MTHICD9",
                            "id": "997.91"
                          },
                          {
                            "dataSource": "NANDA-I",
                            "id": "00905"
                          },
                          {
                            "dataSource": "NCI",
                            "id": "C3117"
                          },
                          {
                            "dataSource": "NCI_CPTAC",
                            "id": "C3117"
                          },
                          {
                            "dataSource": "NCI_CTCAE",
                            "id": "E13785"
                          },
                          {
                            "dataSource": "NCI_CTRP",
                            "id": "C3117"
                          },
                          {
                            "dataSource": "NCI_FDA",
                            "id": "1908"
                          },
                          {
                            "dataSource": "NCI_GDC",
                            "id": "C3117"
                          },
                          {
                            "dataSource": "NCI_NCI-GLOSS",
                            "id": "CDR0000458091"
                          },
                          {
                            "dataSource": "NCI_NICHD",
                            "id": "C3117"
                          },
                          {
                            "dataSource": "NCI_caDSR",
                            "id": "C3117"
                          },
                          {
                            "dataSource": "NOC",
                            "id": "060808"
                          },
                          {
                            "dataSource": "OMIM",
                            "id": "MTHU002068"
                          },
                          {
                            "dataSource": "PCDS",
                            "id": "PRB_11000.06"
                          },
                          {
                            "dataSource": "PDQ",
                            "id": "CDR0000686951"
                          },
                          {
                            "dataSource": "PSY",
                            "id": "23830"
                          },
                          {
                            "dataSource": "RCD",
                            "id": "XE0Ub"
                          },
                          {
                            "dataSource": "SNM",
                            "id": "F-70700"
                          },
                          {
                            "dataSource": "SNMI",
                            "id": "D3-02000"
                          },
                          {
                            "dataSource": "SNOMEDCT_US",
                            "id": "38341003"
                          },
                          {
                            "dataSource": "WHO",
                            "id": "0210"
                          }
                        ]
                      }
                    ],
                    "relations": [],
                    "warnings": [],
                    "fhirBundle": {
                      "resourceType": "Bundle",
                      "id": "19ca1573-02d5-4f11-ab6d-9567c6ceb11c",
                      "meta": {
                        "profile": [
                          "http://hl7.org/fhir/4.0.1/StructureDefinition/Bundle"
                        ]
                      },
                      "identifier": {
                        "system": "urn:ietf:rfc:3986",
                        "value": "urn:uuid:19ca1573-02d5-4f11-ab6d-9567c6ceb11c"
                      },
                      "type": "document",
                      "entry": [
                        {
                          "fullUrl": "Composition/671fcf75-3e6e-443d-8d02-974db7895d79",
                          "resource": {
                            "resourceType": "Composition",
                            "id": "671fcf75-3e6e-443d-8d02-974db7895d79",
                            "status": "final",
                            "type": {
                              "coding": [
                                {
                                  "system": "http://loinc.org",
                                  "code": "11526-1",
                                  "display": "Pathology study"
                                }
                              ],
                              "text": "Pathology study"
                            },
                            "subject": {
                              "reference": "Patient/40665476-0b73-46a9-9c0e-1c78a48ef2fc",
                              "type": "Patient"
                            },
                            "encounter": {
                              "reference": "Encounter/4032c130-3608-4777-9a2f-3561a9cf1daa",
                              "type": "Encounter",
                              "display": "unknown"
                            },
                            "date": "2022-07-27",
                            "author": [
                              {
                                "reference": "Practitioner/962f511b-a3f5-4e01-8222-f4c421da1db8",
                                "type": "Practitioner",
                                "display": "Unknown"
                              }
                            ],
                            "title": "Pathology study",
                            "section": [
                              {
                                "title": "General",
                                "code": {
                                  "coding": [
                                    {
                                      "system": "",
                                      "display": "Unrecognized Section"
                                    }
                                  ],
                                  "text": "General"
                                },
                                "text": {
                                  "div": "\u003Cdiv\u003E\r\n\t\t\t\t\t\t\t\u003Ch1\u003EGeneral\u003C/h1\u003E\r\n\t\t\t\t\t\t\t\u003Cp\u003EPatient does not suffer from high blood pressure.\u003C/p\u003E\r\n\t\t\t\t\t\u003C/div\u003E"
                                },
                                "entry": [
                                  {
                                    "reference": "List/5548e46b-d12b-46e1-9a80-ff46105c3573",
                                    "type": "List",
                                    "display": "General"
                                  }
                                ]
                              }
                            ]
                          }
                        },
                        {
                          "fullUrl": "Practitioner/962f511b-a3f5-4e01-8222-f4c421da1db8",
                          "resource": {
                            "resourceType": "Practitioner",
                            "id": "962f511b-a3f5-4e01-8222-f4c421da1db8",
                            "extension": [
                              {
                                "extension": [
                                  {
                                    "url": "offset",
                                    "valueInteger": -1
                                  },
                                  {
                                    "url": "length",
                                    "valueInteger": 7
                                  }
                                ],
                                "url": "http://hl7.org/fhir/StructureDefinition/derivation-reference"
                              }
                            ],
                            "name": [
                              {
                                "text": "Unknown",
                                "family": "Unknown"
                              }
                            ]
                          }
                        },
                        {
                          "fullUrl": "Patient/40665476-0b73-46a9-9c0e-1c78a48ef2fc",
                          "resource": {
                            "resourceType": "Patient",
                            "id": "40665476-0b73-46a9-9c0e-1c78a48ef2fc",
                            "gender": "unknown"
                          }
                        },
                        {
                          "fullUrl": "Encounter/4032c130-3608-4777-9a2f-3561a9cf1daa",
                          "resource": {
                            "resourceType": "Encounter",
                            "id": "4032c130-3608-4777-9a2f-3561a9cf1daa",
                            "meta": {
                              "profile": [
                                "http://hl7.org/fhir/us/core/StructureDefinition/us-core-encounter"
                              ]
                            },
                            "status": "finished",
                            "class": {
                              "system": "http://terminology.hl7.org/CodeSystem/v3-ActCode",
                              "display": "unknown"
                            },
                            "subject": {
                              "reference": "Patient/40665476-0b73-46a9-9c0e-1c78a48ef2fc",
                              "type": "Patient"
                            }
                          }
                        },
                        {
                          "fullUrl": "Observation/0ddc83a8-8896-4f66-82bc-15b98f5f25f9",
                          "resource": {
                            "resourceType": "Observation",
                            "id": "0ddc83a8-8896-4f66-82bc-15b98f5f25f9",
                            "extension": [
                              {
                                "extension": [
                                  {
                                    "url": "offset",
                                    "valueInteger": 29
                                  },
                                  {
                                    "url": "length",
                                    "valueInteger": 19
                                  }
                                ],
                                "url": "http://hl7.org/fhir/StructureDefinition/derivation-reference"
                              }
                            ],
                            "status": "final",
                            "category": [
                              {
                                "coding": [
                                  {
                                    "system": "http://terminology.hl7.org/CodeSystem/observation-category",
                                    "code": "exam",
                                    "display": "Exam"
                                  }
                                ],
                                "text": "Exam"
                              }
                            ],
                            "code": {
                              "coding": [
                                {
                                  "system": "http://www.nlm.nih.gov/research/umls",
                                  "code": "C0020538",
                                  "display": "Hypertensive disease"
                                },
                                {
                                  "system": "http://www.nlm.nih.gov/research/umls/aod",
                                  "code": "0000023317"
                                },
                                {
                                  "system": "http://www.nlm.nih.gov/research/umls/bi",
                                  "code": "BI00001"
                                },
                                {
                                  "system": "http://www.nlm.nih.gov/research/umls/ccpss",
                                  "code": "1017493"
                                },
                                {
                                  "system": "http://www.nlm.nih.gov/research/umls/ccs",
                                  "code": "7.1"
                                },
                                {
                                  "system": "http://www.nlm.nih.gov/research/umls/chv",
                                  "code": "0000015800"
                                },
                                {
                                  "system": "http://www.nlm.nih.gov/research/umls/costar",
                                  "code": "397"
                                },
                                {
                                  "system": "http://www.nlm.nih.gov/research/umls/csp",
                                  "code": "0571-5243"
                                },
                                {
                                  "system": "http://www.nlm.nih.gov/research/umls/cst",
                                  "code": "HYPERTENS"
                                },
                                {
                                  "system": "http://www.nlm.nih.gov/research/umls/dxp",
                                  "code": "U002034"
                                },
                                {
                                  "system": "http://www.nlm.nih.gov/research/umls/hpo",
                                  "code": "HP:0000822"
                                },
                                {
                                  "system": "http://hl7.org/fhir/sid/icd-10",
                                  "code": "I10-I15.9"
                                },
                                {
                                  "system": "http://hl7.org/fhir/sid/icd-10-am",
                                  "code": "I10-I15.9"
                                },
                                {
                                  "system": "http://hl7.org/fhir/sid/icd-10-cm",
                                  "code": "I10"
                                },
                                {
                                  "system": "http://hl7.org/fhir/sid/icd-9-cm",
                                  "code": "997.91"
                                },
                                {
                                  "system": "http://hl7.org/fhir/sid/icpc2icd10eng",
                                  "code": "MTHU035456"
                                },
                                {
                                  "system": "http://hl7.org/fhir/sid/icpc-2p",
                                  "code": "K85004"
                                },
                                {
                                  "system": "http://www.nlm.nih.gov/research/umls/lch",
                                  "code": "U002317"
                                },
                                {
                                  "system": "http://www.nlm.nih.gov/research/umls/lch_nw",
                                  "code": "sh85063723"
                                },
                                {
                                  "system": "http://loinc.org",
                                  "code": "LA14293-7"
                                },
                                {
                                  "system": "http://www.nlm.nih.gov/research/umls/mdr",
                                  "code": "10020772"
                                },
                                {
                                  "system": "http://www.nlm.nih.gov/research/umls/medcin",
                                  "code": "33288"
                                },
                                {
                                  "system": "http://www.nlm.nih.gov/research/umls/medlineplus",
                                  "code": "34"
                                },
                                {
                                  "system": "http://www.nlm.nih.gov/research/umls/msh",
                                  "code": "D006973"
                                },
                                {
                                  "system": "http://www.nlm.nih.gov/research/umls/mth",
                                  "code": "005"
                                },
                                {
                                  "system": "http://www.nlm.nih.gov/research/umls/mthicd9",
                                  "code": "997.91"
                                },
                                {
                                  "system": "http://www.nlm.nih.gov/research/umls/nanda-i",
                                  "code": "00905"
                                },
                                {
                                  "system": "http://ncimeta.nci.nih.gov",
                                  "code": "C3117"
                                },
                                {
                                  "system": "http://www.nlm.nih.gov/research/umls/nci_cptac",
                                  "code": "C3117"
                                },
                                {
                                  "system": "http://www.nlm.nih.gov/research/umls/nci_ctcae",
                                  "code": "E13785"
                                },
                                {
                                  "system": "http://www.nlm.nih.gov/research/umls/nci_ctrp",
                                  "code": "C3117"
                                },
                                {
                                  "system": "http://www.nlm.nih.gov/research/umls/nci_fda",
                                  "code": "1908"
                                },
                                {
                                  "system": "http://www.nlm.nih.gov/research/umls/nci_gdc",
                                  "code": "C3117"
                                },
                                {
                                  "system": "http://www.nlm.nih.gov/research/umls/nci_nci-gloss",
                                  "code": "CDR0000458091"
                                },
                                {
                                  "system": "http://www.nlm.nih.gov/research/umls/nci_nichd",
                                  "code": "C3117"
                                },
                                {
                                  "system": "http://www.nlm.nih.gov/research/umls/nci_cadsr",
                                  "code": "C3117"
                                },
                                {
                                  "system": "http://www.nlm.nih.gov/research/umls/noc",
                                  "code": "060808"
                                },
                                {
                                  "system": "http://www.nlm.nih.gov/research/umls/omim",
                                  "code": "MTHU002068"
                                },
                                {
                                  "system": "http://www.nlm.nih.gov/research/umls/pcds",
                                  "code": "PRB_11000.06"
                                },
                                {
                                  "system": "http://www.nlm.nih.gov/research/umls/pdq",
                                  "code": "CDR0000686951"
                                },
                                {
                                  "system": "http://www.nlm.nih.gov/research/umls/psy",
                                  "code": "23830"
                                },
                                {
                                  "system": "http://www.nlm.nih.gov/research/umls/rcd",
                                  "code": "XE0Ub"
                                },
                                {
                                  "system": "http://snomed.info/sct",
                                  "code": "F-70700"
                                },
                                {
                                  "system": "http://snomed.info/sct/900000000000207008",
                                  "code": "D3-02000"
                                },
                                {
                                  "system": "http://snomed.info/sct/731000124108",
                                  "code": "38341003"
                                },
                                {
                                  "system": "http://www.nlm.nih.gov/research/umls/who",
                                  "code": "0210"
                                }
                              ],
                              "text": "high blood pressure"
                            },
                            "subject": {
                              "reference": "Patient/40665476-0b73-46a9-9c0e-1c78a48ef2fc",
                              "type": "Patient"
                            },
                            "encounter": {
                              "reference": "Encounter/4032c130-3608-4777-9a2f-3561a9cf1daa",
                              "type": "Encounter",
                              "display": "unknown"
                            },
                            "interpretation": [
                              {
                                "coding": [
                                  {
                                    "system": "http://terminology.hl7.org/CodeSystem/v3-ObservationInterpretation",
                                    "code": "NEG",
                                    "display": "Negative"
                                  }
                                ],
                                "text": "Negative"
                              }
                            ]
                          }
                        },
                        {
                          "fullUrl": "List/5548e46b-d12b-46e1-9a80-ff46105c3573",
                          "resource": {
                            "resourceType": "List",
                            "id": "5548e46b-d12b-46e1-9a80-ff46105c3573",
                            "status": "current",
                            "mode": "snapshot",
                            "title": "General",
                            "subject": {
                              "reference": "Patient/40665476-0b73-46a9-9c0e-1c78a48ef2fc",
                              "type": "Patient"
                            },
                            "encounter": {
                              "reference": "Encounter/4032c130-3608-4777-9a2f-3561a9cf1daa",
                              "type": "Encounter",
                              "display": "unknown"
                            },
                            "entry": [
                              {
                                "item": {
                                  "reference": "Observation/0ddc83a8-8896-4f66-82bc-15b98f5f25f9",
                                  "type": "Observation",
                                  "display": "high blood pressure"
                                }
                              }
                            ]
                          }
                        }
                      ]
                    }
                  },
                  {
                    "id": "1",
                    "entities": [
                      {
                        "offset": 11,
                        "length": 5,
                        "text": "100mg",
                        "category": "Dosage",
                        "confidenceScore": 0.98
                      },
                      {
                        "offset": 17,
                        "length": 9,
                        "text": "ibuprofen",
                        "category": "MedicationName",
                        "confidenceScore": 1.0,
                        "name": "ibuprofen",
                        "links": [
                          {
                            "dataSource": "UMLS",
                            "id": "C0020740"
                          },
                          {
                            "dataSource": "AOD",
                            "id": "0000019879"
                          },
                          {
                            "dataSource": "ATC",
                            "id": "M01AE01"
                          },
                          {
                            "dataSource": "CCPSS",
                            "id": "0046165"
                          },
                          {
                            "dataSource": "CHV",
                            "id": "0000006519"
                          },
                          {
                            "dataSource": "CSP",
                            "id": "2270-2077"
                          },
                          {
                            "dataSource": "DRUGBANK",
                            "id": "DB01050"
                          },
                          {
                            "dataSource": "GS",
                            "id": "1611"
                          },
                          {
                            "dataSource": "LCH_NW",
                            "id": "sh97005926"
                          },
                          {
                            "dataSource": "LNC",
                            "id": "LP16165-0"
                          },
                          {
                            "dataSource": "MEDCIN",
                            "id": "40458"
                          },
                          {
                            "dataSource": "MMSL",
                            "id": "d00015"
                          },
                          {
                            "dataSource": "MSH",
                            "id": "D007052"
                          },
                          {
                            "dataSource": "MTHSPL",
                            "id": "WK2XYI10QM"
                          },
                          {
                            "dataSource": "NCI",
                            "id": "C561"
                          },
                          {
                            "dataSource": "NCI_CTRP",
                            "id": "C561"
                          },
                          {
                            "dataSource": "NCI_DCP",
                            "id": "00803"
                          },
                          {
                            "dataSource": "NCI_DTP",
                            "id": "NSC0256857"
                          },
                          {
                            "dataSource": "NCI_FDA",
                            "id": "WK2XYI10QM"
                          },
                          {
                            "dataSource": "NCI_NCI-GLOSS",
                            "id": "CDR0000613511"
                          },
                          {
                            "dataSource": "NDDF",
                            "id": "002377"
                          },
                          {
                            "dataSource": "PDQ",
                            "id": "CDR0000040475"
                          },
                          {
                            "dataSource": "RCD",
                            "id": "x02MO"
                          },
                          {
                            "dataSource": "RXNORM",
                            "id": "5640"
                          },
                          {
                            "dataSource": "SNM",
                            "id": "E-7772"
                          },
                          {
                            "dataSource": "SNMI",
                            "id": "C-603C0"
                          },
                          {
                            "dataSource": "SNOMEDCT_US",
                            "id": "387207008"
                          },
                          {
                            "dataSource": "USP",
                            "id": "m39860"
                          },
                          {
                            "dataSource": "USPMG",
                            "id": "MTHU000060"
                          },
                          {
                            "dataSource": "VANDF",
                            "id": "4017840"
                          }
                        ]
                      },
                      {
                        "offset": 34,
                        "length": 11,
                        "text": "twice daily",
                        "category": "Frequency",
                        "confidenceScore": 1.0
                      }
                    ],
                    "relations": [
                      {
                        "relationType": "DosageOfMedication",
                        "entities": [
                          {
                            "ref": "#/results/documents/1/entities/0",
                            "role": "Dosage"
                          },
                          {
                            "ref": "#/results/documents/1/entities/1",
                            "role": "Medication"
                          }
                        ]
                      },
                      {
                        "relationType": "FrequencyOfMedication",
                        "entities": [
                          {
                            "ref": "#/results/documents/1/entities/1",
                            "role": "Medication"
                          },
                          {
                            "ref": "#/results/documents/1/entities/2",
                            "role": "Frequency"
                          }
                        ]
                      }
                    ],
                    "warnings": [],
                    "fhirBundle": {
                      "resourceType": "Bundle",
                      "id": "63789efa-0c38-49d1-9b44-87d0acfbf791",
                      "meta": {
                        "profile": [
                          "http://hl7.org/fhir/4.0.1/StructureDefinition/Bundle"
                        ]
                      },
                      "identifier": {
                        "system": "urn:ietf:rfc:3986",
                        "value": "urn:uuid:63789efa-0c38-49d1-9b44-87d0acfbf791"
                      },
                      "type": "document",
                      "entry": [
                        {
                          "fullUrl": "Composition/005eec20-0a86-4457-9d06-24b24e8da1f1",
                          "resource": {
                            "resourceType": "Composition",
                            "id": "005eec20-0a86-4457-9d06-24b24e8da1f1",
                            "status": "final",
                            "type": {
                              "coding": [
                                {
                                  "system": "http://loinc.org",
                                  "code": "11526-1",
                                  "display": "Pathology study"
                                }
                              ],
                              "text": "Pathology study"
                            },
                            "subject": {
                              "reference": "Patient/b9efb0af-a3ec-4148-91b3-7712259c61af",
                              "type": "Patient"
                            },
                            "encounter": {
                              "reference": "Encounter/926ee49e-9721-49c5-985f-9a3ae12a8103",
                              "type": "Encounter",
                              "display": "unknown"
                            },
                            "date": "2022-07-27",
                            "author": [
                              {
                                "reference": "Practitioner/85fb44f2-e593-498f-8237-93015db79862",
                                "type": "Practitioner",
                                "display": "Unknown"
                              }
                            ],
                            "title": "Pathology study",
                            "section": [
                              {
                                "title": "General",
                                "code": {
                                  "coding": [
                                    {
                                      "system": "",
                                      "display": "Unrecognized Section"
                                    }
                                  ],
                                  "text": "General"
                                },
                                "text": {
                                  "div": "\u003Cdiv\u003E\r\n\t\t\t\t\t\t\t\u003Ch1\u003EGeneral\u003C/h1\u003E\r\n\t\t\t\t\t\t\t\u003Cp\u003EPrescribed 100mg ibuprofen, taken twice daily.\u003C/p\u003E\r\n\t\t\t\t\t\u003C/div\u003E"
                                },
                                "entry": [
                                  {
                                    "reference": "List/b0e51850-83e6-4a52-a8ad-64fdec3ac372",
                                    "type": "List",
                                    "display": "General"
                                  }
                                ]
                              }
                            ]
                          }
                        },
                        {
                          "fullUrl": "Practitioner/85fb44f2-e593-498f-8237-93015db79862",
                          "resource": {
                            "resourceType": "Practitioner",
                            "id": "85fb44f2-e593-498f-8237-93015db79862",
                            "extension": [
                              {
                                "extension": [
                                  {
                                    "url": "offset",
                                    "valueInteger": -1
                                  },
                                  {
                                    "url": "length",
                                    "valueInteger": 7
                                  }
                                ],
                                "url": "http://hl7.org/fhir/StructureDefinition/derivation-reference"
                              }
                            ],
                            "name": [
                              {
                                "text": "Unknown",
                                "family": "Unknown"
                              }
                            ]
                          }
                        },
                        {
                          "fullUrl": "Patient/b9efb0af-a3ec-4148-91b3-7712259c61af",
                          "resource": {
                            "resourceType": "Patient",
                            "id": "b9efb0af-a3ec-4148-91b3-7712259c61af",
                            "gender": "unknown"
                          }
                        },
                        {
                          "fullUrl": "Encounter/926ee49e-9721-49c5-985f-9a3ae12a8103",
                          "resource": {
                            "resourceType": "Encounter",
                            "id": "926ee49e-9721-49c5-985f-9a3ae12a8103",
                            "meta": {
                              "profile": [
                                "http://hl7.org/fhir/us/core/StructureDefinition/us-core-encounter"
                              ]
                            },
                            "status": "finished",
                            "class": {
                              "system": "http://terminology.hl7.org/CodeSystem/v3-ActCode",
                              "display": "unknown"
                            },
                            "subject": {
                              "reference": "Patient/b9efb0af-a3ec-4148-91b3-7712259c61af",
                              "type": "Patient"
                            }
                          }
                        },
                        {
                          "fullUrl": "MedicationStatement/bc2a8ace-0166-4c5d-9511-6d316bf8b116",
                          "resource": {
                            "resourceType": "MedicationStatement",
                            "id": "bc2a8ace-0166-4c5d-9511-6d316bf8b116",
                            "extension": [
                              {
                                "extension": [
                                  {
                                    "url": "offset",
                                    "valueInteger": 17
                                  },
                                  {
                                    "url": "length",
                                    "valueInteger": 9
                                  }
                                ],
                                "url": "http://hl7.org/fhir/StructureDefinition/derivation-reference"
                              }
                            ],
                            "status": "active",
                            "medicationCodeableConcept": {
                              "coding": [
                                {
                                  "system": "http://www.nlm.nih.gov/research/umls",
                                  "code": "C0020740",
                                  "display": "ibuprofen"
                                },
                                {
                                  "system": "http://www.nlm.nih.gov/research/umls/aod",
                                  "code": "0000019879"
                                },
                                {
                                  "system": "http://www.whocc.no/atc",
                                  "code": "M01AE01"
                                },
                                {
                                  "system": "http://www.nlm.nih.gov/research/umls/ccpss",
                                  "code": "0046165"
                                },
                                {
                                  "system": "http://www.nlm.nih.gov/research/umls/chv",
                                  "code": "0000006519"
                                },
                                {
                                  "system": "http://www.nlm.nih.gov/research/umls/csp",
                                  "code": "2270-2077"
                                },
                                {
                                  "system": "http://www.nlm.nih.gov/research/umls/drugbank",
                                  "code": "DB01050"
                                },
                                {
                                  "system": "http://www.nlm.nih.gov/research/umls/gs",
                                  "code": "1611"
                                },
                                {
                                  "system": "http://www.nlm.nih.gov/research/umls/lch_nw",
                                  "code": "sh97005926"
                                },
                                {
                                  "system": "http://loinc.org",
                                  "code": "LP16165-0"
                                },
                                {
                                  "system": "http://www.nlm.nih.gov/research/umls/medcin",
                                  "code": "40458"
                                },
                                {
                                  "system": "http://www.nlm.nih.gov/research/umls/mmsl",
                                  "code": "d00015"
                                },
                                {
                                  "system": "http://www.nlm.nih.gov/research/umls/msh",
                                  "code": "D007052"
                                },
                                {
                                  "system": "http://www.nlm.nih.gov/research/umls/mthspl",
                                  "code": "WK2XYI10QM"
                                },
                                {
                                  "system": "http://ncimeta.nci.nih.gov",
                                  "code": "C561"
                                },
                                {
                                  "system": "http://www.nlm.nih.gov/research/umls/nci_ctrp",
                                  "code": "C561"
                                },
                                {
                                  "system": "http://www.nlm.nih.gov/research/umls/nci_dcp",
                                  "code": "00803"
                                },
                                {
                                  "system": "http://www.nlm.nih.gov/research/umls/nci_dtp",
                                  "code": "NSC0256857"
                                },
                                {
                                  "system": "http://www.nlm.nih.gov/research/umls/nci_fda",
                                  "code": "WK2XYI10QM"
                                },
                                {
                                  "system": "http://www.nlm.nih.gov/research/umls/nci_nci-gloss",
                                  "code": "CDR0000613511"
                                },
                                {
                                  "system": "http://www.nlm.nih.gov/research/umls/nddf",
                                  "code": "002377"
                                },
                                {
                                  "system": "http://www.nlm.nih.gov/research/umls/pdq",
                                  "code": "CDR0000040475"
                                },
                                {
                                  "system": "http://www.nlm.nih.gov/research/umls/rcd",
                                  "code": "x02MO"
                                },
                                {
                                  "system": "http://www.nlm.nih.gov/research/umls/rxnorm",
                                  "code": "5640"
                                },
                                {
                                  "system": "http://snomed.info/sct",
                                  "code": "E-7772"
                                },
                                {
                                  "system": "http://snomed.info/sct/900000000000207008",
                                  "code": "C-603C0"
                                },
                                {
                                  "system": "http://snomed.info/sct/731000124108",
                                  "code": "387207008"
                                },
                                {
                                  "system": "http://www.nlm.nih.gov/research/umls/usp",
                                  "code": "m39860"
                                },
                                {
                                  "system": "http://www.nlm.nih.gov/research/umls/uspmg",
                                  "code": "MTHU000060"
                                },
                                {
                                  "system": "http://hl7.org/fhir/ndfrt",
                                  "code": "4017840"
                                }
                              ],
                              "text": "ibuprofen"
                            },
                            "subject": {
                              "reference": "Patient/b9efb0af-a3ec-4148-91b3-7712259c61af",
                              "type": "Patient"
                            },
                            "context": {
                              "reference": "Encounter/926ee49e-9721-49c5-985f-9a3ae12a8103",
                              "type": "Encounter",
                              "display": "unknown"
                            },
                            "dosage": [
                              {
                                "text": "100mg",
                                "timing": {
                                  "repeat": {
                                    "frequency": 2,
                                    "period": 1,
                                    "periodUnit": "d"
                                  },
                                  "code": {
                                    "text": "twice daily"
                                  }
                                },
                                "doseAndRate": [
                                  {
                                    "doseQuantity": {
                                      "value": 100
                                    }
                                  }
                                ]
                              }
                            ]
                          }
                        },
                        {
                          "fullUrl": "List/b0e51850-83e6-4a52-a8ad-64fdec3ac372",
                          "resource": {
                            "resourceType": "List",
                            "id": "b0e51850-83e6-4a52-a8ad-64fdec3ac372",
                            "status": "current",
                            "mode": "snapshot",
                            "title": "General",
                            "subject": {
                              "reference": "Patient/b9efb0af-a3ec-4148-91b3-7712259c61af",
                              "type": "Patient"
                            },
                            "encounter": {
                              "reference": "Encounter/926ee49e-9721-49c5-985f-9a3ae12a8103",
                              "type": "Encounter",
                              "display": "unknown"
                            },
                            "entry": [
                              {
                                "item": {
                                  "reference": "MedicationStatement/bc2a8ace-0166-4c5d-9511-6d316bf8b116",
                                  "type": "MedicationStatement",
                                  "display": "ibuprofen"
                                }
                              }
                            ]
                          }
                        }
                      ]
                    }
                  },
                  {
                    "id": "2",
                    "entities": [
                      {
                        "offset": 0,
                        "length": 4,
                        "text": "Baby",
                        "category": "Age",
                        "confidenceScore": 0.94,
                        "name": "Infant",
                        "links": [
                          {
                            "dataSource": "UMLS",
                            "id": "C0021270"
                          },
                          {
                            "dataSource": "AOD",
                            "id": "0000005273"
                          },
                          {
                            "dataSource": "CCPSS",
                            "id": "0030805"
                          },
                          {
                            "dataSource": "CHV",
                            "id": "0000006675"
                          },
                          {
                            "dataSource": "DXP",
                            "id": "U002089"
                          },
                          {
                            "dataSource": "LCH",
                            "id": "U002421"
                          },
                          {
                            "dataSource": "LCH_NW",
                            "id": "sh85066022"
                          },
                          {
                            "dataSource": "LNC",
                            "id": "LA19747-7"
                          },
                          {
                            "dataSource": "MDR",
                            "id": "10021731"
                          },
                          {
                            "dataSource": "MSH",
                            "id": "D007223"
                          },
                          {
                            "dataSource": "NCI",
                            "id": "C27956"
                          },
                          {
                            "dataSource": "NCI_FDA",
                            "id": "C27956"
                          },
                          {
                            "dataSource": "NCI_NICHD",
                            "id": "C27956"
                          },
                          {
                            "dataSource": "SNOMEDCT_US",
                            "id": "133931009"
                          }
                        ]
                      },
                      {
                        "offset": 24,
                        "length": 10,
                        "text": "Meningitis",
                        "category": "Diagnosis",
                        "confidenceScore": 1.0,
                        "assertion": {
                          "certainty": "negativePossible"
                        },
                        "name": "Meningitis",
                        "links": [
                          {
                            "dataSource": "UMLS",
                            "id": "C0025289"
                          },
                          {
                            "dataSource": "AOD",
                            "id": "0000006185"
                          },
                          {
                            "dataSource": "BI",
                            "id": "BI00546"
                          },
                          {
                            "dataSource": "CCPSS",
                            "id": "1018016"
                          },
                          {
                            "dataSource": "CCSR_10",
                            "id": "NVS001"
                          },
                          {
                            "dataSource": "CCSR_ICD10CM",
                            "id": "NVS001"
                          },
                          {
                            "dataSource": "CHV",
                            "id": "0000007932"
                          },
                          {
                            "dataSource": "COSTAR",
                            "id": "478"
                          },
                          {
                            "dataSource": "CSP",
                            "id": "2042-5301"
                          },
                          {
                            "dataSource": "CST",
                            "id": "MENINGITIS"
                          },
                          {
                            "dataSource": "DXP",
                            "id": "U002543"
                          },
                          {
                            "dataSource": "HPO",
                            "id": "HP:0001287"
                          },
                          {
                            "dataSource": "ICD10",
                            "id": "G03.9"
                          },
                          {
                            "dataSource": "ICD10AM",
                            "id": "G03.9"
                          },
                          {
                            "dataSource": "ICD10CM",
                            "id": "G03.9"
                          },
                          {
                            "dataSource": "ICD9CM",
                            "id": "322.9"
                          },
                          {
                            "dataSource": "ICPC2ICD10ENG",
                            "id": "MTHU048434"
                          },
                          {
                            "dataSource": "ICPC2P",
                            "id": "N71002"
                          },
                          {
                            "dataSource": "LCH",
                            "id": "U002901"
                          },
                          {
                            "dataSource": "LCH_NW",
                            "id": "sh85083562"
                          },
                          {
                            "dataSource": "LNC",
                            "id": "LP20756-0"
                          },
                          {
                            "dataSource": "MDR",
                            "id": "10027199"
                          },
                          {
                            "dataSource": "MEDCIN",
                            "id": "31192"
                          },
                          {
                            "dataSource": "MEDLINEPLUS",
                            "id": "324"
                          },
                          {
                            "dataSource": "MSH",
                            "id": "D008581"
                          },
                          {
                            "dataSource": "NANDA-I",
                            "id": "02899"
                          },
                          {
                            "dataSource": "NCI",
                            "id": "C26828"
                          },
                          {
                            "dataSource": "NCI_CPTAC",
                            "id": "C26828"
                          },
                          {
                            "dataSource": "NCI_CTCAE",
                            "id": "E11458"
                          },
                          {
                            "dataSource": "NCI_FDA",
                            "id": "2389"
                          },
                          {
                            "dataSource": "NCI_NCI-GLOSS",
                            "id": "CDR0000471780"
                          },
                          {
                            "dataSource": "NCI_NICHD",
                            "id": "C26828"
                          },
                          {
                            "dataSource": "NCI_caDSR",
                            "id": "C26828"
                          },
                          {
                            "dataSource": "OMIM",
                            "id": "MTHU005994"
                          },
                          {
                            "dataSource": "PSY",
                            "id": "30660"
                          },
                          {
                            "dataSource": "RCD",
                            "id": "X000H"
                          },
                          {
                            "dataSource": "SNM",
                            "id": "M-40000"
                          },
                          {
                            "dataSource": "SNMI",
                            "id": "DA-10010"
                          },
                          {
                            "dataSource": "SNOMEDCT_US",
                            "id": "7180009"
                          },
                          {
                            "dataSource": "WHO",
                            "id": "0955"
                          }
                        ]
                      },
                      {
                        "offset": 47,
                        "length": 5,
                        "text": "fever",
                        "category": "SymptomOrSign",
                        "confidenceScore": 0.98,
                        "name": "Fever",
                        "links": [
                          {
                            "dataSource": "UMLS",
                            "id": "C0015967"
                          },
                          {
                            "dataSource": "AIR",
                            "id": "FEVER"
                          },
                          {
                            "dataSource": "AOD",
                            "id": "0000004396"
                          },
                          {
                            "dataSource": "BI",
                            "id": "BI00751"
                          },
                          {
                            "dataSource": "CCC",
                            "id": "K25.2"
                          },
                          {
                            "dataSource": "CCPSS",
                            "id": "1017166"
                          },
                          {
                            "dataSource": "CCSR_10",
                            "id": "SYM002"
                          },
                          {
                            "dataSource": "CCSR_ICD10CM",
                            "id": "SYM002"
                          },
                          {
                            "dataSource": "CHV",
                            "id": "0000005010"
                          },
                          {
                            "dataSource": "COSTAR",
                            "id": "300"
                          },
                          {
                            "dataSource": "CPM",
                            "id": "65287"
                          },
                          {
                            "dataSource": "CSP",
                            "id": "2871-4310"
                          },
                          {
                            "dataSource": "CST",
                            "id": "FEVER"
                          },
                          {
                            "dataSource": "DXP",
                            "id": "U001483"
                          },
                          {
                            "dataSource": "GO",
                            "id": "GO:0001660"
                          },
                          {
                            "dataSource": "HPO",
                            "id": "HP:0001945"
                          },
                          {
                            "dataSource": "ICD10",
                            "id": "R50.9"
                          },
                          {
                            "dataSource": "ICD10AM",
                            "id": "R50.9"
                          },
                          {
                            "dataSource": "ICD10CM",
                            "id": "R50.9"
                          },
                          {
                            "dataSource": "ICD9CM",
                            "id": "780.60"
                          },
                          {
                            "dataSource": "ICNP",
                            "id": "10041539"
                          },
                          {
                            "dataSource": "ICPC",
                            "id": "A03"
                          },
                          {
                            "dataSource": "ICPC2EENG",
                            "id": "A03"
                          },
                          {
                            "dataSource": "ICPC2ICD10ENG",
                            "id": "MTHU041751"
                          },
                          {
                            "dataSource": "ICPC2P",
                            "id": "A03002"
                          },
                          {
                            "dataSource": "LCH",
                            "id": "U001776"
                          },
                          {
                            "dataSource": "LCH_NW",
                            "id": "sh85047994"
                          },
                          {
                            "dataSource": "LNC",
                            "id": "MTHU013518"
                          },
                          {
                            "dataSource": "MDR",
                            "id": "10005911"
                          },
                          {
                            "dataSource": "MEDCIN",
                            "id": "6005"
                          },
                          {
                            "dataSource": "MEDLINEPLUS",
                            "id": "511"
                          },
                          {
                            "dataSource": "MSH",
                            "id": "D005334"
                          },
                          {
                            "dataSource": "MTHICD9",
                            "id": "780.60"
                          },
                          {
                            "dataSource": "NANDA-I",
                            "id": "01128"
                          },
                          {
                            "dataSource": "NCI",
                            "id": "C3038"
                          },
                          {
                            "dataSource": "NCI_CTCAE",
                            "id": "E11102"
                          },
                          {
                            "dataSource": "NCI_FDA",
                            "id": "1858"
                          },
                          {
                            "dataSource": "NCI_GDC",
                            "id": "C3038"
                          },
                          {
                            "dataSource": "NCI_NCI-GLOSS",
                            "id": "CDR0000450108"
                          },
                          {
                            "dataSource": "NCI_NICHD",
                            "id": "C3038"
                          },
                          {
                            "dataSource": "NCI_caDSR",
                            "id": "C3038"
                          },
                          {
                            "dataSource": "NOC",
                            "id": "070307"
                          },
                          {
                            "dataSource": "OMIM",
                            "id": "MTHU005439"
                          },
                          {
                            "dataSource": "OMS",
                            "id": "50.03"
                          },
                          {
                            "dataSource": "PCDS",
                            "id": "PRB_11020.02"
                          },
                          {
                            "dataSource": "PDQ",
                            "id": "CDR0000775882"
                          },
                          {
                            "dataSource": "PSY",
                            "id": "23840"
                          },
                          {
                            "dataSource": "QMR",
                            "id": "Q0200115"
                          },
                          {
                            "dataSource": "RCD",
                            "id": "X76EI"
                          },
                          {
                            "dataSource": "SNM",
                            "id": "F-03003"
                          },
                          {
                            "dataSource": "SNMI",
                            "id": "F-03003"
                          },
                          {
                            "dataSource": "SNOMEDCT_US",
                            "id": "386661006"
                          },
                          {
                            "dataSource": "WHO",
                            "id": "0725"
                          }
                        ]
                      },
                      {
                        "offset": 60,
                        "length": 6,
                        "text": "mother",
                        "category": "FamilyRelation",
                        "confidenceScore": 0.99,
                        "name": "Mother (person)",
                        "links": [
                          {
                            "dataSource": "UMLS",
                            "id": "C0026591"
                          },
                          {
                            "dataSource": "AOD",
                            "id": "0000027173"
                          },
                          {
                            "dataSource": "CCPSS",
                            "id": "U000286"
                          },
                          {
                            "dataSource": "CHV",
                            "id": "0000008266"
                          },
                          {
                            "dataSource": "CSP",
                            "id": "1124-5492"
                          },
                          {
                            "dataSource": "HL7V3.0",
                            "id": "MTH"
                          },
                          {
                            "dataSource": "LCH",
                            "id": "U003028"
                          },
                          {
                            "dataSource": "LCH_NW",
                            "id": "sh85087526"
                          },
                          {
                            "dataSource": "LNC",
                            "id": "LA10417-6"
                          },
                          {
                            "dataSource": "MSH",
                            "id": "D009035"
                          },
                          {
                            "dataSource": "NCI",
                            "id": "C25189"
                          },
                          {
                            "dataSource": "NCI_CDISC",
                            "id": "C25189"
                          },
                          {
                            "dataSource": "NCI_GDC",
                            "id": "C25189"
                          },
                          {
                            "dataSource": "NCI_caDSR",
                            "id": "C25189"
                          },
                          {
                            "dataSource": "PSY",
                            "id": "32140"
                          },
                          {
                            "dataSource": "RCD",
                            "id": "X78ym"
                          },
                          {
                            "dataSource": "SNMI",
                            "id": "S-10120"
                          },
                          {
                            "dataSource": "SNOMEDCT_US",
                            "id": "72705000"
                          }
                        ]
                      },
                      {
                        "offset": 77,
                        "length": 10,
                        "text": "Penicillin",
                        "category": "MedicationName",
                        "confidenceScore": 0.84,
                        "assertion": {
                          "certainty": "neutralPossible"
                        },
                        "name": "penicillins",
                        "links": [
                          {
                            "dataSource": "UMLS",
                            "id": "C0030842"
                          },
                          {
                            "dataSource": "AOD",
                            "id": "0000019206"
                          },
                          {
                            "dataSource": "ATC",
                            "id": "J01C"
                          },
                          {
                            "dataSource": "CCPSS",
                            "id": "0014106"
                          },
                          {
                            "dataSource": "CHV",
                            "id": "0000009423"
                          },
                          {
                            "dataSource": "CSP",
                            "id": "0199-8025"
                          },
                          {
                            "dataSource": "GS",
                            "id": "4011"
                          },
                          {
                            "dataSource": "LCH",
                            "id": "U003521"
                          },
                          {
                            "dataSource": "LCH_NW",
                            "id": "sh85099402"
                          },
                          {
                            "dataSource": "LNC",
                            "id": "LP14319-5"
                          },
                          {
                            "dataSource": "MEDCIN",
                            "id": "40319"
                          },
                          {
                            "dataSource": "MMSL",
                            "id": "d00116"
                          },
                          {
                            "dataSource": "MSH",
                            "id": "D010406"
                          },
                          {
                            "dataSource": "NCI",
                            "id": "C1500"
                          },
                          {
                            "dataSource": "NCI_DTP",
                            "id": "NSC0402815"
                          },
                          {
                            "dataSource": "NCI_NCI-GLOSS",
                            "id": "CDR0000045296"
                          },
                          {
                            "dataSource": "NDDF",
                            "id": "016121"
                          },
                          {
                            "dataSource": "PSY",
                            "id": "37190"
                          },
                          {
                            "dataSource": "RCD",
                            "id": "x009C"
                          },
                          {
                            "dataSource": "SNM",
                            "id": "E-7260"
                          },
                          {
                            "dataSource": "SNMI",
                            "id": "C-54000"
                          },
                          {
                            "dataSource": "SNOMEDCT_US",
                            "id": "764146007"
                          },
                          {
                            "dataSource": "VANDF",
                            "id": "4019880"
                          }
                        ]
                      },
                      {
                        "offset": 96,
                        "length": 4,
                        "text": "baby",
                        "category": "FamilyRelation",
                        "confidenceScore": 1.0,
                        "name": "Infant",
                        "links": [
                          {
                            "dataSource": "UMLS",
                            "id": "C0021270"
                          },
                          {
                            "dataSource": "AOD",
                            "id": "0000005273"
                          },
                          {
                            "dataSource": "CCPSS",
                            "id": "0030805"
                          },
                          {
                            "dataSource": "CHV",
                            "id": "0000006675"
                          },
                          {
                            "dataSource": "DXP",
                            "id": "U002089"
                          },
                          {
                            "dataSource": "LCH",
                            "id": "U002421"
                          },
                          {
                            "dataSource": "LCH_NW",
                            "id": "sh85066022"
                          },
                          {
                            "dataSource": "LNC",
                            "id": "LA19747-7"
                          },
                          {
                            "dataSource": "MDR",
                            "id": "10021731"
                          },
                          {
                            "dataSource": "MSH",
                            "id": "D007223"
                          },
                          {
                            "dataSource": "NCI",
                            "id": "C27956"
                          },
                          {
                            "dataSource": "NCI_FDA",
                            "id": "C27956"
                          },
                          {
                            "dataSource": "NCI_NICHD",
                            "id": "C27956"
                          },
                          {
                            "dataSource": "SNOMEDCT_US",
                            "id": "133931009"
                          }
                        ]
                      }
                    ],
                    "relations": [],
                    "warnings": [],
                    "fhirBundle": {
                      "resourceType": "Bundle",
                      "id": "b89e33b6-2eed-48c4-9eb0-54690de4ebac",
                      "meta": {
                        "profile": [
                          "http://hl7.org/fhir/4.0.1/StructureDefinition/Bundle"
                        ]
                      },
                      "identifier": {
                        "system": "urn:ietf:rfc:3986",
                        "value": "urn:uuid:b89e33b6-2eed-48c4-9eb0-54690de4ebac"
                      },
                      "type": "document",
                      "entry": [
                        {
                          "fullUrl": "Composition/3add5fcc-1ada-443f-ba0f-d1918d7275da",
                          "resource": {
                            "resourceType": "Composition",
                            "id": "3add5fcc-1ada-443f-ba0f-d1918d7275da",
                            "status": "final",
                            "type": {
                              "coding": [
                                {
                                  "system": "http://loinc.org",
                                  "code": "11526-1",
                                  "display": "Pathology study"
                                }
                              ],
                              "text": "Pathology study"
                            },
                            "subject": {
                              "reference": "Patient/ac62da79-f2d5-432b-9e9e-47b74cf889b5",
                              "type": "Patient"
                            },
                            "encounter": {
                              "reference": "Encounter/ffacdec7-fef5-4cd4-8bec-08188c818cee",
                              "type": "Encounter",
                              "display": "unknown"
                            },
                            "date": "2022-07-27",
                            "author": [
                              {
                                "reference": "Practitioner/d2f85785-6ddb-4347-84b9-83bf7423ad6d",
                                "type": "Practitioner",
                                "display": "Unknown"
                              }
                            ],
                            "title": "Pathology study",
                            "section": [
                              {
                                "title": "General",
                                "code": {
                                  "coding": [
                                    {
                                      "system": "",
                                      "display": "Unrecognized Section"
                                    }
                                  ],
                                  "text": "General"
                                },
                                "text": {
                                  "div": "\u003Cdiv\u003E\r\n\t\t\t\t\t\t\t\u003Ch1\u003EGeneral\u003C/h1\u003E\r\n\t\t\t\t\t\t\t\u003Cp\u003EBaby not likely to have Meningitis. in case of fever in the mother, consider Penicillin for the baby too.\u003C/p\u003E\r\n\t\t\t\t\t\u003C/div\u003E"
                                },
                                "entry": [
                                  {
                                    "reference": "List/9819fd67-708c-4f36-9bf2-9bfc00ecee6f",
                                    "type": "List",
                                    "display": "General"
                                  }
                                ]
                              }
                            ]
                          }
                        },
                        {
                          "fullUrl": "Practitioner/d2f85785-6ddb-4347-84b9-83bf7423ad6d",
                          "resource": {
                            "resourceType": "Practitioner",
                            "id": "d2f85785-6ddb-4347-84b9-83bf7423ad6d",
                            "extension": [
                              {
                                "extension": [
                                  {
                                    "url": "offset",
                                    "valueInteger": -1
                                  },
                                  {
                                    "url": "length",
                                    "valueInteger": 7
                                  }
                                ],
                                "url": "http://hl7.org/fhir/StructureDefinition/derivation-reference"
                              }
                            ],
                            "name": [
                              {
                                "text": "Unknown",
                                "family": "Unknown"
                              }
                            ]
                          }
                        },
                        {
                          "fullUrl": "Patient/ac62da79-f2d5-432b-9e9e-47b74cf889b5",
                          "resource": {
                            "resourceType": "Patient",
                            "id": "ac62da79-f2d5-432b-9e9e-47b74cf889b5",
                            "gender": "unknown"
                          }
                        },
                        {
                          "fullUrl": "Encounter/ffacdec7-fef5-4cd4-8bec-08188c818cee",
                          "resource": {
                            "resourceType": "Encounter",
                            "id": "ffacdec7-fef5-4cd4-8bec-08188c818cee",
                            "meta": {
                              "profile": [
                                "http://hl7.org/fhir/us/core/StructureDefinition/us-core-encounter"
                              ]
                            },
                            "status": "finished",
                            "class": {
                              "system": "http://terminology.hl7.org/CodeSystem/v3-ActCode",
                              "display": "unknown"
                            },
                            "subject": {
                              "reference": "Patient/ac62da79-f2d5-432b-9e9e-47b74cf889b5",
                              "type": "Patient"
                            }
                          }
                        },
                        {
                          "fullUrl": "Condition/45b9dddd-7ebd-46b1-a053-03851cea14d8",
                          "resource": {
                            "resourceType": "Condition",
                            "id": "45b9dddd-7ebd-46b1-a053-03851cea14d8",
                            "meta": {
                              "profile": [
                                "http://hl7.org/fhir/us/core/StructureDefinition/us-core-condition"
                              ]
                            },
                            "extension": [
                              {
                                "extension": [
                                  {
                                    "url": "offset",
                                    "valueInteger": 24
                                  },
                                  {
                                    "url": "length",
                                    "valueInteger": 10
                                  }
                                ],
                                "url": "http://hl7.org/fhir/StructureDefinition/derivation-reference"
                              }
                            ],
                            "verificationStatus": {
                              "coding": [
                                {
                                  "system": "http://terminology.hl7.org/CodeSystem/condition-ver-status",
                                  "code": "unconfirmed",
                                  "display": "Unconfirmed"
                                }
                              ],
                              "text": "Unconfirmed"
                            },
                            "category": [
                              {
                                "coding": [
                                  {
                                    "system": "http://terminology.hl7.org/CodeSystem/condition-category",
                                    "code": "encounter-diagnosis",
                                    "display": "Encounter Diagnosis"
                                  }
                                ],
                                "text": "Encounter Diagnosis"
                              }
                            ],
                            "code": {
                              "coding": [
                                {
                                  "system": "http://www.nlm.nih.gov/research/umls",
                                  "code": "C0025289",
                                  "display": "Meningitis"
                                },
                                {
                                  "system": "http://www.nlm.nih.gov/research/umls/aod",
                                  "code": "0000006185"
                                },
                                {
                                  "system": "http://www.nlm.nih.gov/research/umls/bi",
                                  "code": "BI00546"
                                },
                                {
                                  "system": "http://www.nlm.nih.gov/research/umls/ccpss",
                                  "code": "1018016"
                                },
                                {
                                  "system": "http://www.nlm.nih.gov/research/umls/ccsr_10",
                                  "code": "NVS001"
                                },
                                {
                                  "system": "http://www.nlm.nih.gov/research/umls/ccsr_icd10cm",
                                  "code": "NVS001"
                                },
                                {
                                  "system": "http://www.nlm.nih.gov/research/umls/chv",
                                  "code": "0000007932"
                                },
                                {
                                  "system": "http://www.nlm.nih.gov/research/umls/costar",
                                  "code": "478"
                                },
                                {
                                  "system": "http://www.nlm.nih.gov/research/umls/csp",
                                  "code": "2042-5301"
                                },
                                {
                                  "system": "http://www.nlm.nih.gov/research/umls/cst",
                                  "code": "MENINGITIS"
                                },
                                {
                                  "system": "http://www.nlm.nih.gov/research/umls/dxp",
                                  "code": "U002543"
                                },
                                {
                                  "system": "http://www.nlm.nih.gov/research/umls/hpo",
                                  "code": "HP:0001287"
                                },
                                {
                                  "system": "http://hl7.org/fhir/sid/icd-10",
                                  "code": "G03.9"
                                },
                                {
                                  "system": "http://hl7.org/fhir/sid/icd-10-am",
                                  "code": "G03.9"
                                },
                                {
                                  "system": "http://hl7.org/fhir/sid/icd-10-cm",
                                  "code": "G03.9"
                                },
                                {
                                  "system": "http://hl7.org/fhir/sid/icd-9-cm",
                                  "code": "322.9"
                                },
                                {
                                  "system": "http://hl7.org/fhir/sid/icpc2icd10eng",
                                  "code": "MTHU048434"
                                },
                                {
                                  "system": "http://hl7.org/fhir/sid/icpc-2p",
                                  "code": "N71002"
                                },
                                {
                                  "system": "http://www.nlm.nih.gov/research/umls/lch",
                                  "code": "U002901"
                                },
                                {
                                  "system": "http://www.nlm.nih.gov/research/umls/lch_nw",
                                  "code": "sh85083562"
                                },
                                {
                                  "system": "http://loinc.org",
                                  "code": "LP20756-0"
                                },
                                {
                                  "system": "http://www.nlm.nih.gov/research/umls/mdr",
                                  "code": "10027199"
                                },
                                {
                                  "system": "http://www.nlm.nih.gov/research/umls/medcin",
                                  "code": "31192"
                                },
                                {
                                  "system": "http://www.nlm.nih.gov/research/umls/medlineplus",
                                  "code": "324"
                                },
                                {
                                  "system": "http://www.nlm.nih.gov/research/umls/msh",
                                  "code": "D008581"
                                },
                                {
                                  "system": "http://www.nlm.nih.gov/research/umls/nanda-i",
                                  "code": "02899"
                                },
                                {
                                  "system": "http://ncimeta.nci.nih.gov",
                                  "code": "C26828"
                                },
                                {
                                  "system": "http://www.nlm.nih.gov/research/umls/nci_cptac",
                                  "code": "C26828"
                                },
                                {
                                  "system": "http://www.nlm.nih.gov/research/umls/nci_ctcae",
                                  "code": "E11458"
                                },
                                {
                                  "system": "http://www.nlm.nih.gov/research/umls/nci_fda",
                                  "code": "2389"
                                },
                                {
                                  "system": "http://www.nlm.nih.gov/research/umls/nci_nci-gloss",
                                  "code": "CDR0000471780"
                                },
                                {
                                  "system": "http://www.nlm.nih.gov/research/umls/nci_nichd",
                                  "code": "C26828"
                                },
                                {
                                  "system": "http://www.nlm.nih.gov/research/umls/nci_cadsr",
                                  "code": "C26828"
                                },
                                {
                                  "system": "http://www.nlm.nih.gov/research/umls/omim",
                                  "code": "MTHU005994"
                                },
                                {
                                  "system": "http://www.nlm.nih.gov/research/umls/psy",
                                  "code": "30660"
                                },
                                {
                                  "system": "http://www.nlm.nih.gov/research/umls/rcd",
                                  "code": "X000H"
                                },
                                {
                                  "system": "http://snomed.info/sct",
                                  "code": "M-40000"
                                },
                                {
                                  "system": "http://snomed.info/sct/900000000000207008",
                                  "code": "DA-10010"
                                },
                                {
                                  "system": "http://snomed.info/sct/731000124108",
                                  "code": "7180009"
                                },
                                {
                                  "system": "http://www.nlm.nih.gov/research/umls/who",
                                  "code": "0955"
                                }
                              ],
                              "text": "Meningitis"
                            },
                            "subject": {
                              "reference": "Patient/ac62da79-f2d5-432b-9e9e-47b74cf889b5",
                              "type": "Patient"
                            },
                            "encounter": {
                              "reference": "Encounter/ffacdec7-fef5-4cd4-8bec-08188c818cee",
                              "type": "Encounter",
                              "display": "unknown"
                            }
                          }
                        },
                        {
                          "fullUrl": "Observation/5ba567c9-a445-47a0-ae1e-1056d7699911",
                          "resource": {
                            "resourceType": "Observation",
                            "id": "5ba567c9-a445-47a0-ae1e-1056d7699911",
                            "extension": [
                              {
                                "extension": [
                                  {
                                    "url": "offset",
                                    "valueInteger": 47
                                  },
                                  {
                                    "url": "length",
                                    "valueInteger": 5
                                  }
                                ],
                                "url": "http://hl7.org/fhir/StructureDefinition/derivation-reference"
                              }
                            ],
                            "status": "final",
                            "category": [
                              {
                                "coding": [
                                  {
                                    "system": "http://terminology.hl7.org/CodeSystem/observation-category",
                                    "code": "exam",
                                    "display": "Exam"
                                  }
                                ],
                                "text": "Exam"
                              }
                            ],
                            "code": {
                              "coding": [
                                {
                                  "system": "http://www.nlm.nih.gov/research/umls",
                                  "code": "C0015967",
                                  "display": "Fever"
                                },
                                {
                                  "system": "http://www.nlm.nih.gov/research/umls/air",
                                  "code": "FEVER"
                                },
                                {
                                  "system": "http://www.nlm.nih.gov/research/umls/aod",
                                  "code": "0000004396"
                                },
                                {
                                  "system": "http://www.nlm.nih.gov/research/umls/bi",
                                  "code": "BI00751"
                                },
                                {
                                  "system": "http://www.nlm.nih.gov/research/umls/ccc",
                                  "code": "K25.2"
                                },
                                {
                                  "system": "http://www.nlm.nih.gov/research/umls/ccpss",
                                  "code": "1017166"
                                },
                                {
                                  "system": "http://www.nlm.nih.gov/research/umls/ccsr_10",
                                  "code": "SYM002"
                                },
                                {
                                  "system": "http://www.nlm.nih.gov/research/umls/ccsr_icd10cm",
                                  "code": "SYM002"
                                },
                                {
                                  "system": "http://www.nlm.nih.gov/research/umls/chv",
                                  "code": "0000005010"
                                },
                                {
                                  "system": "http://www.nlm.nih.gov/research/umls/costar",
                                  "code": "300"
                                },
                                {
                                  "system": "http://www.nlm.nih.gov/research/umls/cpm",
                                  "code": "65287"
                                },
                                {
                                  "system": "http://www.nlm.nih.gov/research/umls/csp",
                                  "code": "2871-4310"
                                },
                                {
                                  "system": "http://www.nlm.nih.gov/research/umls/cst",
                                  "code": "FEVER"
                                },
                                {
                                  "system": "http://www.nlm.nih.gov/research/umls/dxp",
                                  "code": "U001483"
                                },
                                {
                                  "system": "http://www.nlm.nih.gov/research/umls/go",
                                  "code": "GO:0001660"
                                },
                                {
                                  "system": "http://www.nlm.nih.gov/research/umls/hpo",
                                  "code": "HP:0001945"
                                },
                                {
                                  "system": "http://hl7.org/fhir/sid/icd-10",
                                  "code": "R50.9"
                                },
                                {
                                  "system": "http://hl7.org/fhir/sid/icd-10-am",
                                  "code": "R50.9"
                                },
                                {
                                  "system": "http://hl7.org/fhir/sid/icd-10-cm",
                                  "code": "R50.9"
                                },
                                {
                                  "system": "http://hl7.org/fhir/sid/icd-9-cm",
                                  "code": "780.60"
                                },
                                {
                                  "system": "http://www.nlm.nih.gov/research/umls/icnp",
                                  "code": "10041539"
                                },
                                {
                                  "system": "http://www.nlm.nih.gov/research/umls/icpc",
                                  "code": "A03"
                                },
                                {
                                  "system": "http://www.nlm.nih.gov/research/umls/icpc2eeng",
                                  "code": "A03"
                                },
                                {
                                  "system": "http://hl7.org/fhir/sid/icpc2icd10eng",
                                  "code": "MTHU041751"
                                },
                                {
                                  "system": "http://hl7.org/fhir/sid/icpc-2p",
                                  "code": "A03002"
                                },
                                {
                                  "system": "http://www.nlm.nih.gov/research/umls/lch",
                                  "code": "U001776"
                                },
                                {
                                  "system": "http://www.nlm.nih.gov/research/umls/lch_nw",
                                  "code": "sh85047994"
                                },
                                {
                                  "system": "http://loinc.org",
                                  "code": "MTHU013518"
                                },
                                {
                                  "system": "http://www.nlm.nih.gov/research/umls/mdr",
                                  "code": "10005911"
                                },
                                {
                                  "system": "http://www.nlm.nih.gov/research/umls/medcin",
                                  "code": "6005"
                                },
                                {
                                  "system": "http://www.nlm.nih.gov/research/umls/medlineplus",
                                  "code": "511"
                                },
                                {
                                  "system": "http://www.nlm.nih.gov/research/umls/msh",
                                  "code": "D005334"
                                },
                                {
                                  "system": "http://www.nlm.nih.gov/research/umls/mthicd9",
                                  "code": "780.60"
                                },
                                {
                                  "system": "http://www.nlm.nih.gov/research/umls/nanda-i",
                                  "code": "01128"
                                },
                                {
                                  "system": "http://ncimeta.nci.nih.gov",
                                  "code": "C3038"
                                },
                                {
                                  "system": "http://www.nlm.nih.gov/research/umls/nci_ctcae",
                                  "code": "E11102"
                                },
                                {
                                  "system": "http://www.nlm.nih.gov/research/umls/nci_fda",
                                  "code": "1858"
                                },
                                {
                                  "system": "http://www.nlm.nih.gov/research/umls/nci_gdc",
                                  "code": "C3038"
                                },
                                {
                                  "system": "http://www.nlm.nih.gov/research/umls/nci_nci-gloss",
                                  "code": "CDR0000450108"
                                },
                                {
                                  "system": "http://www.nlm.nih.gov/research/umls/nci_nichd",
                                  "code": "C3038"
                                },
                                {
                                  "system": "http://www.nlm.nih.gov/research/umls/nci_cadsr",
                                  "code": "C3038"
                                },
                                {
                                  "system": "http://www.nlm.nih.gov/research/umls/noc",
                                  "code": "070307"
                                },
                                {
                                  "system": "http://www.nlm.nih.gov/research/umls/omim",
                                  "code": "MTHU005439"
                                },
                                {
                                  "system": "http://www.nlm.nih.gov/research/umls/oms",
                                  "code": "50.03"
                                },
                                {
                                  "system": "http://www.nlm.nih.gov/research/umls/pcds",
                                  "code": "PRB_11020.02"
                                },
                                {
                                  "system": "http://www.nlm.nih.gov/research/umls/pdq",
                                  "code": "CDR0000775882"
                                },
                                {
                                  "system": "http://www.nlm.nih.gov/research/umls/psy",
                                  "code": "23840"
                                },
                                {
                                  "system": "http://www.nlm.nih.gov/research/umls/qmr",
                                  "code": "Q0200115"
                                },
                                {
                                  "system": "http://www.nlm.nih.gov/research/umls/rcd",
                                  "code": "X76EI"
                                },
                                {
                                  "system": "http://snomed.info/sct",
                                  "code": "F-03003"
                                },
                                {
                                  "system": "http://snomed.info/sct/900000000000207008",
                                  "code": "F-03003"
                                },
                                {
                                  "system": "http://snomed.info/sct/731000124108",
                                  "code": "386661006"
                                },
                                {
                                  "system": "http://www.nlm.nih.gov/research/umls/who",
                                  "code": "0725"
                                }
                              ],
                              "text": "fever"
                            },
                            "subject": {
                              "reference": "Patient/ac62da79-f2d5-432b-9e9e-47b74cf889b5",
                              "type": "Patient"
                            },
                            "encounter": {
                              "reference": "Encounter/ffacdec7-fef5-4cd4-8bec-08188c818cee",
                              "type": "Encounter",
                              "display": "unknown"
                            },
                            "interpretation": [
                              {
                                "coding": [
                                  {
                                    "system": "http://terminology.hl7.org/CodeSystem/v3-ObservationInterpretation",
                                    "code": "POS",
                                    "display": "Positive"
                                  }
                                ],
                                "text": "Positive"
                              }
                            ]
                          }
                        },
                        {
                          "fullUrl": "MedicationStatement/5097a0da-2006-4805-bd47-4a7f54eb8869",
                          "resource": {
                            "resourceType": "MedicationStatement",
                            "id": "5097a0da-2006-4805-bd47-4a7f54eb8869",
                            "extension": [
                              {
                                "extension": [
                                  {
                                    "url": "offset",
                                    "valueInteger": 77
                                  },
                                  {
                                    "url": "length",
                                    "valueInteger": 10
                                  }
                                ],
                                "url": "http://hl7.org/fhir/StructureDefinition/derivation-reference"
                              }
                            ],
                            "status": "unknown",
                            "medicationCodeableConcept": {
                              "coding": [
                                {
                                  "system": "http://www.nlm.nih.gov/research/umls",
                                  "code": "C0030842",
                                  "display": "penicillins"
                                },
                                {
                                  "system": "http://www.nlm.nih.gov/research/umls/aod",
                                  "code": "0000019206"
                                },
                                {
                                  "system": "http://www.whocc.no/atc",
                                  "code": "J01C"
                                },
                                {
                                  "system": "http://www.nlm.nih.gov/research/umls/ccpss",
                                  "code": "0014106"
                                },
                                {
                                  "system": "http://www.nlm.nih.gov/research/umls/chv",
                                  "code": "0000009423"
                                },
                                {
                                  "system": "http://www.nlm.nih.gov/research/umls/csp",
                                  "code": "0199-8025"
                                },
                                {
                                  "system": "http://www.nlm.nih.gov/research/umls/gs",
                                  "code": "4011"
                                },
                                {
                                  "system": "http://www.nlm.nih.gov/research/umls/lch",
                                  "code": "U003521"
                                },
                                {
                                  "system": "http://www.nlm.nih.gov/research/umls/lch_nw",
                                  "code": "sh85099402"
                                },
                                {
                                  "system": "http://loinc.org",
                                  "code": "LP14319-5"
                                },
                                {
                                  "system": "http://www.nlm.nih.gov/research/umls/medcin",
                                  "code": "40319"
                                },
                                {
                                  "system": "http://www.nlm.nih.gov/research/umls/mmsl",
                                  "code": "d00116"
                                },
                                {
                                  "system": "http://www.nlm.nih.gov/research/umls/msh",
                                  "code": "D010406"
                                },
                                {
                                  "system": "http://ncimeta.nci.nih.gov",
                                  "code": "C1500"
                                },
                                {
                                  "system": "http://www.nlm.nih.gov/research/umls/nci_dtp",
                                  "code": "NSC0402815"
                                },
                                {
                                  "system": "http://www.nlm.nih.gov/research/umls/nci_nci-gloss",
                                  "code": "CDR0000045296"
                                },
                                {
                                  "system": "http://www.nlm.nih.gov/research/umls/nddf",
                                  "code": "016121"
                                },
                                {
                                  "system": "http://www.nlm.nih.gov/research/umls/psy",
                                  "code": "37190"
                                },
                                {
                                  "system": "http://www.nlm.nih.gov/research/umls/rcd",
                                  "code": "x009C"
                                },
                                {
                                  "system": "http://snomed.info/sct",
                                  "code": "E-7260"
                                },
                                {
                                  "system": "http://snomed.info/sct/900000000000207008",
                                  "code": "C-54000"
                                },
                                {
                                  "system": "http://snomed.info/sct/731000124108",
                                  "code": "764146007"
                                },
                                {
                                  "system": "http://hl7.org/fhir/ndfrt",
                                  "code": "4019880"
                                }
                              ],
                              "text": "Penicillin"
                            },
                            "subject": {
                              "reference": "Patient/ac62da79-f2d5-432b-9e9e-47b74cf889b5",
                              "type": "Patient"
                            },
                            "context": {
                              "reference": "Encounter/ffacdec7-fef5-4cd4-8bec-08188c818cee",
                              "type": "Encounter",
                              "display": "unknown"
                            }
                          }
                        },
                        {
                          "fullUrl": "List/9819fd67-708c-4f36-9bf2-9bfc00ecee6f",
                          "resource": {
                            "resourceType": "List",
                            "id": "9819fd67-708c-4f36-9bf2-9bfc00ecee6f",
                            "status": "current",
                            "mode": "snapshot",
                            "title": "General",
                            "subject": {
                              "reference": "Patient/ac62da79-f2d5-432b-9e9e-47b74cf889b5",
                              "type": "Patient"
                            },
                            "encounter": {
                              "reference": "Encounter/ffacdec7-fef5-4cd4-8bec-08188c818cee",
                              "type": "Encounter",
                              "display": "unknown"
                            },
                            "entry": [
                              {
                                "item": {
                                  "reference": "Condition/45b9dddd-7ebd-46b1-a053-03851cea14d8",
                                  "type": "Condition",
                                  "display": "Meningitis"
                                }
                              },
                              {
                                "item": {
                                  "reference": "Observation/5ba567c9-a445-47a0-ae1e-1056d7699911",
                                  "type": "Observation",
                                  "display": "fever"
                                }
                              },
                              {
                                "item": {
                                  "reference": "MedicationStatement/5097a0da-2006-4805-bd47-4a7f54eb8869",
                                  "type": "MedicationStatement",
                                  "display": "Penicillin"
                                }
                              }
                            ]
                          }
                        }
                      ]
                    }
                  }
                ],
                "errors": [],
                "modelVersion": "2022-03-01"
              }
            }
          ]
        }
      }
    },
    {
      "RequestUri": "https://endpoint/language/analyze-text/jobs/ceccef01-5084-49d7-9b19-c06d3138814f?api-version=2022-04-01-preview",
      "RequestMethod": "GET",
      "RequestHeaders": {
        "Accept": "application/json",
        "Accept-Encoding": "gzip, deflate, br",
        "Accept-Language": "en-US",
        "Connection": "keep-alive",
        "ocp-apim-subscription-key": "api_key",
        "Referer": "http://localhost:9876/",
        "sec-ch-ua": "",
        "sec-ch-ua-mobile": "?0",
        "sec-ch-ua-platform": "",
        "Sec-Fetch-Dest": "empty",
        "Sec-Fetch-Mode": "cors",
        "Sec-Fetch-Site": "same-site",
        "User-Agent": "Mozilla/5.0 (X11; Linux x86_64) AppleWebKit/537.36 (KHTML, like Gecko) HeadlessChrome/103.0.5058.0 Safari/537.36",
        "x-ms-client-request-id": "e91471b7-92c6-4ae6-ae89-48ed22528ae8",
        "x-ms-useragent": "azsdk-js-ai-language-text/1.0.0-beta.1 core-rest-pipeline/1.9.1 OS/Linuxx86_64"
      },
      "RequestBody": null,
      "StatusCode": 200,
      "ResponseHeaders": {
        "apim-request-id": "cd130928-a442-41c2-8fc7-28c107ae8abb",
        "Content-Length": "37756",
        "Content-Type": "application/json; charset=utf-8",
        "Date": "Wed, 27 Jul 2022 17:51:50 GMT",
        "Strict-Transport-Security": "max-age=31536000; includeSubDomains; preload",
        "warn-agent": "-",
        "warn-code": "299",
        "warn-text": "Microsoft Cognitive Services Language APIs version 2022-04-01-preview is retired and will be removed by Dec 1, 2022. The latest supported version is 2022-05-01. For more information please check http://aka.ms/language-api-versions.",
        "X-Content-Type-Options": "nosniff",
        "x-envoy-upstream-service-time": "68"
      },
      "ResponseBody": {
        "jobId": "ceccef01-5084-49d7-9b19-c06d3138814f",
        "lastUpdateDateTime": "2022-07-27T17:51:48Z",
        "createdDateTime": "2022-07-27T17:51:47Z",
        "expirationDateTime": "2022-07-28T17:51:47Z",
        "status": "succeeded",
        "errors": [],
        "tasks": {
          "completed": 1,
          "failed": 0,
          "inProgress": 0,
          "total": 1,
          "items": [
            {
              "kind": "HealthcareLROResults",
              "lastUpdateDateTime": "2022-07-27T17:51:48.8620806Z",
              "status": "succeeded",
              "results": {
                "documents": [
                  {
                    "id": "0",
                    "entities": [
                      {
                        "offset": 29,
                        "length": 19,
                        "text": "high blood pressure",
                        "category": "SymptomOrSign",
                        "confidenceScore": 1.0,
                        "assertion": {
                          "certainty": "negative"
                        },
                        "name": "Hypertensive disease",
                        "links": [
                          {
                            "dataSource": "UMLS",
                            "id": "C0020538"
                          },
                          {
                            "dataSource": "AOD",
                            "id": "0000023317"
                          },
                          {
                            "dataSource": "BI",
                            "id": "BI00001"
                          },
                          {
                            "dataSource": "CCPSS",
                            "id": "1017493"
                          },
                          {
                            "dataSource": "CCS",
                            "id": "7.1"
                          },
                          {
                            "dataSource": "CHV",
                            "id": "0000015800"
                          },
                          {
                            "dataSource": "COSTAR",
                            "id": "397"
                          },
                          {
                            "dataSource": "CSP",
                            "id": "0571-5243"
                          },
                          {
                            "dataSource": "CST",
                            "id": "HYPERTENS"
                          },
                          {
                            "dataSource": "DXP",
                            "id": "U002034"
                          },
                          {
                            "dataSource": "HPO",
                            "id": "HP:0000822"
                          },
                          {
                            "dataSource": "ICD10",
                            "id": "I10-I15.9"
                          },
                          {
                            "dataSource": "ICD10AM",
                            "id": "I10-I15.9"
                          },
                          {
                            "dataSource": "ICD10CM",
                            "id": "I10"
                          },
                          {
                            "dataSource": "ICD9CM",
                            "id": "997.91"
                          },
                          {
                            "dataSource": "ICPC2ICD10ENG",
                            "id": "MTHU035456"
                          },
                          {
                            "dataSource": "ICPC2P",
                            "id": "K85004"
                          },
                          {
                            "dataSource": "LCH",
                            "id": "U002317"
                          },
                          {
                            "dataSource": "LCH_NW",
                            "id": "sh85063723"
                          },
                          {
                            "dataSource": "LNC",
                            "id": "LA14293-7"
                          },
                          {
                            "dataSource": "MDR",
                            "id": "10020772"
                          },
                          {
                            "dataSource": "MEDCIN",
                            "id": "33288"
                          },
                          {
                            "dataSource": "MEDLINEPLUS",
                            "id": "34"
                          },
                          {
                            "dataSource": "MSH",
                            "id": "D006973"
                          },
                          {
                            "dataSource": "MTH",
                            "id": "005"
                          },
                          {
                            "dataSource": "MTHICD9",
                            "id": "997.91"
                          },
                          {
                            "dataSource": "NANDA-I",
                            "id": "00905"
                          },
                          {
                            "dataSource": "NCI",
                            "id": "C3117"
                          },
                          {
                            "dataSource": "NCI_CPTAC",
                            "id": "C3117"
                          },
                          {
                            "dataSource": "NCI_CTCAE",
                            "id": "E13785"
                          },
                          {
                            "dataSource": "NCI_CTRP",
                            "id": "C3117"
                          },
                          {
                            "dataSource": "NCI_FDA",
                            "id": "1908"
                          },
                          {
                            "dataSource": "NCI_GDC",
                            "id": "C3117"
                          },
                          {
                            "dataSource": "NCI_NCI-GLOSS",
                            "id": "CDR0000458091"
                          },
                          {
                            "dataSource": "NCI_NICHD",
                            "id": "C3117"
                          },
                          {
                            "dataSource": "NCI_caDSR",
                            "id": "C3117"
                          },
                          {
                            "dataSource": "NOC",
                            "id": "060808"
                          },
                          {
                            "dataSource": "OMIM",
                            "id": "MTHU002068"
                          },
                          {
                            "dataSource": "PCDS",
                            "id": "PRB_11000.06"
                          },
                          {
                            "dataSource": "PDQ",
                            "id": "CDR0000686951"
                          },
                          {
                            "dataSource": "PSY",
                            "id": "23830"
                          },
                          {
                            "dataSource": "RCD",
                            "id": "XE0Ub"
                          },
                          {
                            "dataSource": "SNM",
                            "id": "F-70700"
                          },
                          {
                            "dataSource": "SNMI",
                            "id": "D3-02000"
                          },
                          {
                            "dataSource": "SNOMEDCT_US",
                            "id": "38341003"
                          },
                          {
                            "dataSource": "WHO",
                            "id": "0210"
                          }
                        ]
                      }
                    ],
                    "relations": [],
                    "warnings": [],
                    "fhirBundle": {
                      "resourceType": "Bundle",
                      "id": "19ca1573-02d5-4f11-ab6d-9567c6ceb11c",
                      "meta": {
                        "profile": [
                          "http://hl7.org/fhir/4.0.1/StructureDefinition/Bundle"
                        ]
                      },
                      "identifier": {
                        "system": "urn:ietf:rfc:3986",
                        "value": "urn:uuid:19ca1573-02d5-4f11-ab6d-9567c6ceb11c"
                      },
                      "type": "document",
                      "entry": [
                        {
                          "fullUrl": "Composition/671fcf75-3e6e-443d-8d02-974db7895d79",
                          "resource": {
                            "resourceType": "Composition",
                            "id": "671fcf75-3e6e-443d-8d02-974db7895d79",
                            "status": "final",
                            "type": {
                              "coding": [
                                {
                                  "system": "http://loinc.org",
                                  "code": "11526-1",
                                  "display": "Pathology study"
                                }
                              ],
                              "text": "Pathology study"
                            },
                            "subject": {
                              "reference": "Patient/40665476-0b73-46a9-9c0e-1c78a48ef2fc",
                              "type": "Patient"
                            },
                            "encounter": {
                              "reference": "Encounter/4032c130-3608-4777-9a2f-3561a9cf1daa",
                              "type": "Encounter",
                              "display": "unknown"
                            },
                            "date": "2022-07-27",
                            "author": [
                              {
                                "reference": "Practitioner/962f511b-a3f5-4e01-8222-f4c421da1db8",
                                "type": "Practitioner",
                                "display": "Unknown"
                              }
                            ],
                            "title": "Pathology study",
                            "section": [
                              {
                                "title": "General",
                                "code": {
                                  "coding": [
                                    {
                                      "system": "",
                                      "display": "Unrecognized Section"
                                    }
                                  ],
                                  "text": "General"
                                },
                                "text": {
                                  "div": "\u003Cdiv\u003E\r\n\t\t\t\t\t\t\t\u003Ch1\u003EGeneral\u003C/h1\u003E\r\n\t\t\t\t\t\t\t\u003Cp\u003EPatient does not suffer from high blood pressure.\u003C/p\u003E\r\n\t\t\t\t\t\u003C/div\u003E"
                                },
                                "entry": [
                                  {
                                    "reference": "List/5548e46b-d12b-46e1-9a80-ff46105c3573",
                                    "type": "List",
                                    "display": "General"
                                  }
                                ]
                              }
                            ]
                          }
                        },
                        {
                          "fullUrl": "Practitioner/962f511b-a3f5-4e01-8222-f4c421da1db8",
                          "resource": {
                            "resourceType": "Practitioner",
                            "id": "962f511b-a3f5-4e01-8222-f4c421da1db8",
                            "extension": [
                              {
                                "extension": [
                                  {
                                    "url": "offset",
                                    "valueInteger": -1
                                  },
                                  {
                                    "url": "length",
                                    "valueInteger": 7
                                  }
                                ],
                                "url": "http://hl7.org/fhir/StructureDefinition/derivation-reference"
                              }
                            ],
                            "name": [
                              {
                                "text": "Unknown",
                                "family": "Unknown"
                              }
                            ]
                          }
                        },
                        {
                          "fullUrl": "Patient/40665476-0b73-46a9-9c0e-1c78a48ef2fc",
                          "resource": {
                            "resourceType": "Patient",
                            "id": "40665476-0b73-46a9-9c0e-1c78a48ef2fc",
                            "gender": "unknown"
                          }
                        },
                        {
                          "fullUrl": "Encounter/4032c130-3608-4777-9a2f-3561a9cf1daa",
                          "resource": {
                            "resourceType": "Encounter",
                            "id": "4032c130-3608-4777-9a2f-3561a9cf1daa",
                            "meta": {
                              "profile": [
                                "http://hl7.org/fhir/us/core/StructureDefinition/us-core-encounter"
                              ]
                            },
                            "status": "finished",
                            "class": {
                              "system": "http://terminology.hl7.org/CodeSystem/v3-ActCode",
                              "display": "unknown"
                            },
                            "subject": {
                              "reference": "Patient/40665476-0b73-46a9-9c0e-1c78a48ef2fc",
                              "type": "Patient"
                            }
                          }
                        },
                        {
                          "fullUrl": "Observation/0ddc83a8-8896-4f66-82bc-15b98f5f25f9",
                          "resource": {
                            "resourceType": "Observation",
                            "id": "0ddc83a8-8896-4f66-82bc-15b98f5f25f9",
                            "extension": [
                              {
                                "extension": [
                                  {
                                    "url": "offset",
                                    "valueInteger": 29
                                  },
                                  {
                                    "url": "length",
                                    "valueInteger": 19
                                  }
                                ],
                                "url": "http://hl7.org/fhir/StructureDefinition/derivation-reference"
                              }
                            ],
                            "status": "final",
                            "category": [
                              {
                                "coding": [
                                  {
                                    "system": "http://terminology.hl7.org/CodeSystem/observation-category",
                                    "code": "exam",
                                    "display": "Exam"
                                  }
                                ],
                                "text": "Exam"
                              }
                            ],
                            "code": {
                              "coding": [
                                {
                                  "system": "http://www.nlm.nih.gov/research/umls",
                                  "code": "C0020538",
                                  "display": "Hypertensive disease"
                                },
                                {
                                  "system": "http://www.nlm.nih.gov/research/umls/aod",
                                  "code": "0000023317"
                                },
                                {
                                  "system": "http://www.nlm.nih.gov/research/umls/bi",
                                  "code": "BI00001"
                                },
                                {
                                  "system": "http://www.nlm.nih.gov/research/umls/ccpss",
                                  "code": "1017493"
                                },
                                {
                                  "system": "http://www.nlm.nih.gov/research/umls/ccs",
                                  "code": "7.1"
                                },
                                {
                                  "system": "http://www.nlm.nih.gov/research/umls/chv",
                                  "code": "0000015800"
                                },
                                {
                                  "system": "http://www.nlm.nih.gov/research/umls/costar",
                                  "code": "397"
                                },
                                {
                                  "system": "http://www.nlm.nih.gov/research/umls/csp",
                                  "code": "0571-5243"
                                },
                                {
                                  "system": "http://www.nlm.nih.gov/research/umls/cst",
                                  "code": "HYPERTENS"
                                },
                                {
                                  "system": "http://www.nlm.nih.gov/research/umls/dxp",
                                  "code": "U002034"
                                },
                                {
                                  "system": "http://www.nlm.nih.gov/research/umls/hpo",
                                  "code": "HP:0000822"
                                },
                                {
                                  "system": "http://hl7.org/fhir/sid/icd-10",
                                  "code": "I10-I15.9"
                                },
                                {
                                  "system": "http://hl7.org/fhir/sid/icd-10-am",
                                  "code": "I10-I15.9"
                                },
                                {
                                  "system": "http://hl7.org/fhir/sid/icd-10-cm",
                                  "code": "I10"
                                },
                                {
                                  "system": "http://hl7.org/fhir/sid/icd-9-cm",
                                  "code": "997.91"
                                },
                                {
                                  "system": "http://hl7.org/fhir/sid/icpc2icd10eng",
                                  "code": "MTHU035456"
                                },
                                {
                                  "system": "http://hl7.org/fhir/sid/icpc-2p",
                                  "code": "K85004"
                                },
                                {
                                  "system": "http://www.nlm.nih.gov/research/umls/lch",
                                  "code": "U002317"
                                },
                                {
                                  "system": "http://www.nlm.nih.gov/research/umls/lch_nw",
                                  "code": "sh85063723"
                                },
                                {
                                  "system": "http://loinc.org",
                                  "code": "LA14293-7"
                                },
                                {
                                  "system": "http://www.nlm.nih.gov/research/umls/mdr",
                                  "code": "10020772"
                                },
                                {
                                  "system": "http://www.nlm.nih.gov/research/umls/medcin",
                                  "code": "33288"
                                },
                                {
                                  "system": "http://www.nlm.nih.gov/research/umls/medlineplus",
                                  "code": "34"
                                },
                                {
                                  "system": "http://www.nlm.nih.gov/research/umls/msh",
                                  "code": "D006973"
                                },
                                {
                                  "system": "http://www.nlm.nih.gov/research/umls/mth",
                                  "code": "005"
                                },
                                {
                                  "system": "http://www.nlm.nih.gov/research/umls/mthicd9",
                                  "code": "997.91"
                                },
                                {
                                  "system": "http://www.nlm.nih.gov/research/umls/nanda-i",
                                  "code": "00905"
                                },
                                {
                                  "system": "http://ncimeta.nci.nih.gov",
                                  "code": "C3117"
                                },
                                {
                                  "system": "http://www.nlm.nih.gov/research/umls/nci_cptac",
                                  "code": "C3117"
                                },
                                {
                                  "system": "http://www.nlm.nih.gov/research/umls/nci_ctcae",
                                  "code": "E13785"
                                },
                                {
                                  "system": "http://www.nlm.nih.gov/research/umls/nci_ctrp",
                                  "code": "C3117"
                                },
                                {
                                  "system": "http://www.nlm.nih.gov/research/umls/nci_fda",
                                  "code": "1908"
                                },
                                {
                                  "system": "http://www.nlm.nih.gov/research/umls/nci_gdc",
                                  "code": "C3117"
                                },
                                {
                                  "system": "http://www.nlm.nih.gov/research/umls/nci_nci-gloss",
                                  "code": "CDR0000458091"
                                },
                                {
                                  "system": "http://www.nlm.nih.gov/research/umls/nci_nichd",
                                  "code": "C3117"
                                },
                                {
                                  "system": "http://www.nlm.nih.gov/research/umls/nci_cadsr",
                                  "code": "C3117"
                                },
                                {
                                  "system": "http://www.nlm.nih.gov/research/umls/noc",
                                  "code": "060808"
                                },
                                {
                                  "system": "http://www.nlm.nih.gov/research/umls/omim",
                                  "code": "MTHU002068"
                                },
                                {
                                  "system": "http://www.nlm.nih.gov/research/umls/pcds",
                                  "code": "PRB_11000.06"
                                },
                                {
                                  "system": "http://www.nlm.nih.gov/research/umls/pdq",
                                  "code": "CDR0000686951"
                                },
                                {
                                  "system": "http://www.nlm.nih.gov/research/umls/psy",
                                  "code": "23830"
                                },
                                {
                                  "system": "http://www.nlm.nih.gov/research/umls/rcd",
                                  "code": "XE0Ub"
                                },
                                {
                                  "system": "http://snomed.info/sct",
                                  "code": "F-70700"
                                },
                                {
                                  "system": "http://snomed.info/sct/900000000000207008",
                                  "code": "D3-02000"
                                },
                                {
                                  "system": "http://snomed.info/sct/731000124108",
                                  "code": "38341003"
                                },
                                {
                                  "system": "http://www.nlm.nih.gov/research/umls/who",
                                  "code": "0210"
                                }
                              ],
                              "text": "high blood pressure"
                            },
                            "subject": {
                              "reference": "Patient/40665476-0b73-46a9-9c0e-1c78a48ef2fc",
                              "type": "Patient"
                            },
                            "encounter": {
                              "reference": "Encounter/4032c130-3608-4777-9a2f-3561a9cf1daa",
                              "type": "Encounter",
                              "display": "unknown"
                            },
                            "interpretation": [
                              {
                                "coding": [
                                  {
                                    "system": "http://terminology.hl7.org/CodeSystem/v3-ObservationInterpretation",
                                    "code": "NEG",
                                    "display": "Negative"
                                  }
                                ],
                                "text": "Negative"
                              }
                            ]
                          }
                        },
                        {
                          "fullUrl": "List/5548e46b-d12b-46e1-9a80-ff46105c3573",
                          "resource": {
                            "resourceType": "List",
                            "id": "5548e46b-d12b-46e1-9a80-ff46105c3573",
                            "status": "current",
                            "mode": "snapshot",
                            "title": "General",
                            "subject": {
                              "reference": "Patient/40665476-0b73-46a9-9c0e-1c78a48ef2fc",
                              "type": "Patient"
                            },
                            "encounter": {
                              "reference": "Encounter/4032c130-3608-4777-9a2f-3561a9cf1daa",
                              "type": "Encounter",
                              "display": "unknown"
                            },
                            "entry": [
                              {
                                "item": {
                                  "reference": "Observation/0ddc83a8-8896-4f66-82bc-15b98f5f25f9",
                                  "type": "Observation",
                                  "display": "high blood pressure"
                                }
                              }
                            ]
                          }
                        }
                      ]
                    }
                  },
                  {
                    "id": "1",
                    "entities": [
                      {
                        "offset": 11,
                        "length": 5,
                        "text": "100mg",
                        "category": "Dosage",
                        "confidenceScore": 0.98
                      },
                      {
                        "offset": 17,
                        "length": 9,
                        "text": "ibuprofen",
                        "category": "MedicationName",
                        "confidenceScore": 1.0,
                        "name": "ibuprofen",
                        "links": [
                          {
                            "dataSource": "UMLS",
                            "id": "C0020740"
                          },
                          {
                            "dataSource": "AOD",
                            "id": "0000019879"
                          },
                          {
                            "dataSource": "ATC",
                            "id": "M01AE01"
                          },
                          {
                            "dataSource": "CCPSS",
                            "id": "0046165"
                          },
                          {
                            "dataSource": "CHV",
                            "id": "0000006519"
                          },
                          {
                            "dataSource": "CSP",
                            "id": "2270-2077"
                          },
                          {
                            "dataSource": "DRUGBANK",
                            "id": "DB01050"
                          },
                          {
                            "dataSource": "GS",
                            "id": "1611"
                          },
                          {
                            "dataSource": "LCH_NW",
                            "id": "sh97005926"
                          },
                          {
                            "dataSource": "LNC",
                            "id": "LP16165-0"
                          },
                          {
                            "dataSource": "MEDCIN",
                            "id": "40458"
                          },
                          {
                            "dataSource": "MMSL",
                            "id": "d00015"
                          },
                          {
                            "dataSource": "MSH",
                            "id": "D007052"
                          },
                          {
                            "dataSource": "MTHSPL",
                            "id": "WK2XYI10QM"
                          },
                          {
                            "dataSource": "NCI",
                            "id": "C561"
                          },
                          {
                            "dataSource": "NCI_CTRP",
                            "id": "C561"
                          },
                          {
                            "dataSource": "NCI_DCP",
                            "id": "00803"
                          },
                          {
                            "dataSource": "NCI_DTP",
                            "id": "NSC0256857"
                          },
                          {
                            "dataSource": "NCI_FDA",
                            "id": "WK2XYI10QM"
                          },
                          {
                            "dataSource": "NCI_NCI-GLOSS",
                            "id": "CDR0000613511"
                          },
                          {
                            "dataSource": "NDDF",
                            "id": "002377"
                          },
                          {
                            "dataSource": "PDQ",
                            "id": "CDR0000040475"
                          },
                          {
                            "dataSource": "RCD",
                            "id": "x02MO"
                          },
                          {
                            "dataSource": "RXNORM",
                            "id": "5640"
                          },
                          {
                            "dataSource": "SNM",
                            "id": "E-7772"
                          },
                          {
                            "dataSource": "SNMI",
                            "id": "C-603C0"
                          },
                          {
                            "dataSource": "SNOMEDCT_US",
                            "id": "387207008"
                          },
                          {
                            "dataSource": "USP",
                            "id": "m39860"
                          },
                          {
                            "dataSource": "USPMG",
                            "id": "MTHU000060"
                          },
                          {
                            "dataSource": "VANDF",
                            "id": "4017840"
                          }
                        ]
                      },
                      {
                        "offset": 34,
                        "length": 11,
                        "text": "twice daily",
                        "category": "Frequency",
                        "confidenceScore": 1.0
                      }
                    ],
                    "relations": [
                      {
                        "relationType": "DosageOfMedication",
                        "entities": [
                          {
                            "ref": "#/results/documents/1/entities/0",
                            "role": "Dosage"
                          },
                          {
                            "ref": "#/results/documents/1/entities/1",
                            "role": "Medication"
                          }
                        ]
                      },
                      {
                        "relationType": "FrequencyOfMedication",
                        "entities": [
                          {
                            "ref": "#/results/documents/1/entities/1",
                            "role": "Medication"
                          },
                          {
                            "ref": "#/results/documents/1/entities/2",
                            "role": "Frequency"
                          }
                        ]
                      }
                    ],
                    "warnings": [],
                    "fhirBundle": {
                      "resourceType": "Bundle",
                      "id": "63789efa-0c38-49d1-9b44-87d0acfbf791",
                      "meta": {
                        "profile": [
                          "http://hl7.org/fhir/4.0.1/StructureDefinition/Bundle"
                        ]
                      },
                      "identifier": {
                        "system": "urn:ietf:rfc:3986",
                        "value": "urn:uuid:63789efa-0c38-49d1-9b44-87d0acfbf791"
                      },
                      "type": "document",
                      "entry": [
                        {
                          "fullUrl": "Composition/005eec20-0a86-4457-9d06-24b24e8da1f1",
                          "resource": {
                            "resourceType": "Composition",
                            "id": "005eec20-0a86-4457-9d06-24b24e8da1f1",
                            "status": "final",
                            "type": {
                              "coding": [
                                {
                                  "system": "http://loinc.org",
                                  "code": "11526-1",
                                  "display": "Pathology study"
                                }
                              ],
                              "text": "Pathology study"
                            },
                            "subject": {
                              "reference": "Patient/b9efb0af-a3ec-4148-91b3-7712259c61af",
                              "type": "Patient"
                            },
                            "encounter": {
                              "reference": "Encounter/926ee49e-9721-49c5-985f-9a3ae12a8103",
                              "type": "Encounter",
                              "display": "unknown"
                            },
                            "date": "2022-07-27",
                            "author": [
                              {
                                "reference": "Practitioner/85fb44f2-e593-498f-8237-93015db79862",
                                "type": "Practitioner",
                                "display": "Unknown"
                              }
                            ],
                            "title": "Pathology study",
                            "section": [
                              {
                                "title": "General",
                                "code": {
                                  "coding": [
                                    {
                                      "system": "",
                                      "display": "Unrecognized Section"
                                    }
                                  ],
                                  "text": "General"
                                },
                                "text": {
                                  "div": "\u003Cdiv\u003E\r\n\t\t\t\t\t\t\t\u003Ch1\u003EGeneral\u003C/h1\u003E\r\n\t\t\t\t\t\t\t\u003Cp\u003EPrescribed 100mg ibuprofen, taken twice daily.\u003C/p\u003E\r\n\t\t\t\t\t\u003C/div\u003E"
                                },
                                "entry": [
                                  {
                                    "reference": "List/b0e51850-83e6-4a52-a8ad-64fdec3ac372",
                                    "type": "List",
                                    "display": "General"
                                  }
                                ]
                              }
                            ]
                          }
                        },
                        {
                          "fullUrl": "Practitioner/85fb44f2-e593-498f-8237-93015db79862",
                          "resource": {
                            "resourceType": "Practitioner",
                            "id": "85fb44f2-e593-498f-8237-93015db79862",
                            "extension": [
                              {
                                "extension": [
                                  {
                                    "url": "offset",
                                    "valueInteger": -1
                                  },
                                  {
                                    "url": "length",
                                    "valueInteger": 7
                                  }
                                ],
                                "url": "http://hl7.org/fhir/StructureDefinition/derivation-reference"
                              }
                            ],
                            "name": [
                              {
                                "text": "Unknown",
                                "family": "Unknown"
                              }
                            ]
                          }
                        },
                        {
                          "fullUrl": "Patient/b9efb0af-a3ec-4148-91b3-7712259c61af",
                          "resource": {
                            "resourceType": "Patient",
                            "id": "b9efb0af-a3ec-4148-91b3-7712259c61af",
                            "gender": "unknown"
                          }
                        },
                        {
                          "fullUrl": "Encounter/926ee49e-9721-49c5-985f-9a3ae12a8103",
                          "resource": {
                            "resourceType": "Encounter",
                            "id": "926ee49e-9721-49c5-985f-9a3ae12a8103",
                            "meta": {
                              "profile": [
                                "http://hl7.org/fhir/us/core/StructureDefinition/us-core-encounter"
                              ]
                            },
                            "status": "finished",
                            "class": {
                              "system": "http://terminology.hl7.org/CodeSystem/v3-ActCode",
                              "display": "unknown"
                            },
                            "subject": {
                              "reference": "Patient/b9efb0af-a3ec-4148-91b3-7712259c61af",
                              "type": "Patient"
                            }
                          }
                        },
                        {
                          "fullUrl": "MedicationStatement/bc2a8ace-0166-4c5d-9511-6d316bf8b116",
                          "resource": {
                            "resourceType": "MedicationStatement",
                            "id": "bc2a8ace-0166-4c5d-9511-6d316bf8b116",
                            "extension": [
                              {
                                "extension": [
                                  {
                                    "url": "offset",
                                    "valueInteger": 17
                                  },
                                  {
                                    "url": "length",
                                    "valueInteger": 9
                                  }
                                ],
                                "url": "http://hl7.org/fhir/StructureDefinition/derivation-reference"
                              }
                            ],
                            "status": "active",
                            "medicationCodeableConcept": {
                              "coding": [
                                {
                                  "system": "http://www.nlm.nih.gov/research/umls",
                                  "code": "C0020740",
                                  "display": "ibuprofen"
                                },
                                {
                                  "system": "http://www.nlm.nih.gov/research/umls/aod",
                                  "code": "0000019879"
                                },
                                {
                                  "system": "http://www.whocc.no/atc",
                                  "code": "M01AE01"
                                },
                                {
                                  "system": "http://www.nlm.nih.gov/research/umls/ccpss",
                                  "code": "0046165"
                                },
                                {
                                  "system": "http://www.nlm.nih.gov/research/umls/chv",
                                  "code": "0000006519"
                                },
                                {
                                  "system": "http://www.nlm.nih.gov/research/umls/csp",
                                  "code": "2270-2077"
                                },
                                {
                                  "system": "http://www.nlm.nih.gov/research/umls/drugbank",
                                  "code": "DB01050"
                                },
                                {
                                  "system": "http://www.nlm.nih.gov/research/umls/gs",
                                  "code": "1611"
                                },
                                {
                                  "system": "http://www.nlm.nih.gov/research/umls/lch_nw",
                                  "code": "sh97005926"
                                },
                                {
                                  "system": "http://loinc.org",
                                  "code": "LP16165-0"
                                },
                                {
                                  "system": "http://www.nlm.nih.gov/research/umls/medcin",
                                  "code": "40458"
                                },
                                {
                                  "system": "http://www.nlm.nih.gov/research/umls/mmsl",
                                  "code": "d00015"
                                },
                                {
                                  "system": "http://www.nlm.nih.gov/research/umls/msh",
                                  "code": "D007052"
                                },
                                {
                                  "system": "http://www.nlm.nih.gov/research/umls/mthspl",
                                  "code": "WK2XYI10QM"
                                },
                                {
                                  "system": "http://ncimeta.nci.nih.gov",
                                  "code": "C561"
                                },
                                {
                                  "system": "http://www.nlm.nih.gov/research/umls/nci_ctrp",
                                  "code": "C561"
                                },
                                {
                                  "system": "http://www.nlm.nih.gov/research/umls/nci_dcp",
                                  "code": "00803"
                                },
                                {
                                  "system": "http://www.nlm.nih.gov/research/umls/nci_dtp",
                                  "code": "NSC0256857"
                                },
                                {
                                  "system": "http://www.nlm.nih.gov/research/umls/nci_fda",
                                  "code": "WK2XYI10QM"
                                },
                                {
                                  "system": "http://www.nlm.nih.gov/research/umls/nci_nci-gloss",
                                  "code": "CDR0000613511"
                                },
                                {
                                  "system": "http://www.nlm.nih.gov/research/umls/nddf",
                                  "code": "002377"
                                },
                                {
                                  "system": "http://www.nlm.nih.gov/research/umls/pdq",
                                  "code": "CDR0000040475"
                                },
                                {
                                  "system": "http://www.nlm.nih.gov/research/umls/rcd",
                                  "code": "x02MO"
                                },
                                {
                                  "system": "http://www.nlm.nih.gov/research/umls/rxnorm",
                                  "code": "5640"
                                },
                                {
                                  "system": "http://snomed.info/sct",
                                  "code": "E-7772"
                                },
                                {
                                  "system": "http://snomed.info/sct/900000000000207008",
                                  "code": "C-603C0"
                                },
                                {
                                  "system": "http://snomed.info/sct/731000124108",
                                  "code": "387207008"
                                },
                                {
                                  "system": "http://www.nlm.nih.gov/research/umls/usp",
                                  "code": "m39860"
                                },
                                {
                                  "system": "http://www.nlm.nih.gov/research/umls/uspmg",
                                  "code": "MTHU000060"
                                },
                                {
                                  "system": "http://hl7.org/fhir/ndfrt",
                                  "code": "4017840"
                                }
                              ],
                              "text": "ibuprofen"
                            },
                            "subject": {
                              "reference": "Patient/b9efb0af-a3ec-4148-91b3-7712259c61af",
                              "type": "Patient"
                            },
                            "context": {
                              "reference": "Encounter/926ee49e-9721-49c5-985f-9a3ae12a8103",
                              "type": "Encounter",
                              "display": "unknown"
                            },
                            "dosage": [
                              {
                                "text": "100mg",
                                "timing": {
                                  "repeat": {
                                    "frequency": 2,
                                    "period": 1,
                                    "periodUnit": "d"
                                  },
                                  "code": {
                                    "text": "twice daily"
                                  }
                                },
                                "doseAndRate": [
                                  {
                                    "doseQuantity": {
                                      "value": 100
                                    }
                                  }
                                ]
                              }
                            ]
                          }
                        },
                        {
                          "fullUrl": "List/b0e51850-83e6-4a52-a8ad-64fdec3ac372",
                          "resource": {
                            "resourceType": "List",
                            "id": "b0e51850-83e6-4a52-a8ad-64fdec3ac372",
                            "status": "current",
                            "mode": "snapshot",
                            "title": "General",
                            "subject": {
                              "reference": "Patient/b9efb0af-a3ec-4148-91b3-7712259c61af",
                              "type": "Patient"
                            },
                            "encounter": {
                              "reference": "Encounter/926ee49e-9721-49c5-985f-9a3ae12a8103",
                              "type": "Encounter",
                              "display": "unknown"
                            },
                            "entry": [
                              {
                                "item": {
                                  "reference": "MedicationStatement/bc2a8ace-0166-4c5d-9511-6d316bf8b116",
                                  "type": "MedicationStatement",
                                  "display": "ibuprofen"
                                }
                              }
                            ]
                          }
                        }
                      ]
                    }
                  },
                  {
                    "id": "2",
                    "entities": [
                      {
                        "offset": 0,
                        "length": 4,
                        "text": "Baby",
                        "category": "Age",
                        "confidenceScore": 0.94,
                        "name": "Infant",
                        "links": [
                          {
                            "dataSource": "UMLS",
                            "id": "C0021270"
                          },
                          {
                            "dataSource": "AOD",
                            "id": "0000005273"
                          },
                          {
                            "dataSource": "CCPSS",
                            "id": "0030805"
                          },
                          {
                            "dataSource": "CHV",
                            "id": "0000006675"
                          },
                          {
                            "dataSource": "DXP",
                            "id": "U002089"
                          },
                          {
                            "dataSource": "LCH",
                            "id": "U002421"
                          },
                          {
                            "dataSource": "LCH_NW",
                            "id": "sh85066022"
                          },
                          {
                            "dataSource": "LNC",
                            "id": "LA19747-7"
                          },
                          {
                            "dataSource": "MDR",
                            "id": "10021731"
                          },
                          {
                            "dataSource": "MSH",
                            "id": "D007223"
                          },
                          {
                            "dataSource": "NCI",
                            "id": "C27956"
                          },
                          {
                            "dataSource": "NCI_FDA",
                            "id": "C27956"
                          },
                          {
                            "dataSource": "NCI_NICHD",
                            "id": "C27956"
                          },
                          {
                            "dataSource": "SNOMEDCT_US",
                            "id": "133931009"
                          }
                        ]
                      },
                      {
                        "offset": 24,
                        "length": 10,
                        "text": "Meningitis",
                        "category": "Diagnosis",
                        "confidenceScore": 1.0,
                        "assertion": {
                          "certainty": "negativePossible"
                        },
                        "name": "Meningitis",
                        "links": [
                          {
                            "dataSource": "UMLS",
                            "id": "C0025289"
                          },
                          {
                            "dataSource": "AOD",
                            "id": "0000006185"
                          },
                          {
                            "dataSource": "BI",
                            "id": "BI00546"
                          },
                          {
                            "dataSource": "CCPSS",
                            "id": "1018016"
                          },
                          {
                            "dataSource": "CCSR_10",
                            "id": "NVS001"
                          },
                          {
                            "dataSource": "CCSR_ICD10CM",
                            "id": "NVS001"
                          },
                          {
                            "dataSource": "CHV",
                            "id": "0000007932"
                          },
                          {
                            "dataSource": "COSTAR",
                            "id": "478"
                          },
                          {
                            "dataSource": "CSP",
                            "id": "2042-5301"
                          },
                          {
                            "dataSource": "CST",
                            "id": "MENINGITIS"
                          },
                          {
                            "dataSource": "DXP",
                            "id": "U002543"
                          },
                          {
                            "dataSource": "HPO",
                            "id": "HP:0001287"
                          },
                          {
                            "dataSource": "ICD10",
                            "id": "G03.9"
                          },
                          {
                            "dataSource": "ICD10AM",
                            "id": "G03.9"
                          },
                          {
                            "dataSource": "ICD10CM",
                            "id": "G03.9"
                          },
                          {
                            "dataSource": "ICD9CM",
                            "id": "322.9"
                          },
                          {
                            "dataSource": "ICPC2ICD10ENG",
                            "id": "MTHU048434"
                          },
                          {
                            "dataSource": "ICPC2P",
                            "id": "N71002"
                          },
                          {
                            "dataSource": "LCH",
                            "id": "U002901"
                          },
                          {
                            "dataSource": "LCH_NW",
                            "id": "sh85083562"
                          },
                          {
                            "dataSource": "LNC",
                            "id": "LP20756-0"
                          },
                          {
                            "dataSource": "MDR",
                            "id": "10027199"
                          },
                          {
                            "dataSource": "MEDCIN",
                            "id": "31192"
                          },
                          {
                            "dataSource": "MEDLINEPLUS",
                            "id": "324"
                          },
                          {
                            "dataSource": "MSH",
                            "id": "D008581"
                          },
                          {
                            "dataSource": "NANDA-I",
                            "id": "02899"
                          },
                          {
                            "dataSource": "NCI",
                            "id": "C26828"
                          },
                          {
                            "dataSource": "NCI_CPTAC",
                            "id": "C26828"
                          },
                          {
                            "dataSource": "NCI_CTCAE",
                            "id": "E11458"
                          },
                          {
                            "dataSource": "NCI_FDA",
                            "id": "2389"
                          },
                          {
                            "dataSource": "NCI_NCI-GLOSS",
                            "id": "CDR0000471780"
                          },
                          {
                            "dataSource": "NCI_NICHD",
                            "id": "C26828"
                          },
                          {
                            "dataSource": "NCI_caDSR",
                            "id": "C26828"
                          },
                          {
                            "dataSource": "OMIM",
                            "id": "MTHU005994"
                          },
                          {
                            "dataSource": "PSY",
                            "id": "30660"
                          },
                          {
                            "dataSource": "RCD",
                            "id": "X000H"
                          },
                          {
                            "dataSource": "SNM",
                            "id": "M-40000"
                          },
                          {
                            "dataSource": "SNMI",
                            "id": "DA-10010"
                          },
                          {
                            "dataSource": "SNOMEDCT_US",
                            "id": "7180009"
                          },
                          {
                            "dataSource": "WHO",
                            "id": "0955"
                          }
                        ]
                      },
                      {
                        "offset": 47,
                        "length": 5,
                        "text": "fever",
                        "category": "SymptomOrSign",
                        "confidenceScore": 0.98,
                        "name": "Fever",
                        "links": [
                          {
                            "dataSource": "UMLS",
                            "id": "C0015967"
                          },
                          {
                            "dataSource": "AIR",
                            "id": "FEVER"
                          },
                          {
                            "dataSource": "AOD",
                            "id": "0000004396"
                          },
                          {
                            "dataSource": "BI",
                            "id": "BI00751"
                          },
                          {
                            "dataSource": "CCC",
                            "id": "K25.2"
                          },
                          {
                            "dataSource": "CCPSS",
                            "id": "1017166"
                          },
                          {
                            "dataSource": "CCSR_10",
                            "id": "SYM002"
                          },
                          {
                            "dataSource": "CCSR_ICD10CM",
                            "id": "SYM002"
                          },
                          {
                            "dataSource": "CHV",
                            "id": "0000005010"
                          },
                          {
                            "dataSource": "COSTAR",
                            "id": "300"
                          },
                          {
                            "dataSource": "CPM",
                            "id": "65287"
                          },
                          {
                            "dataSource": "CSP",
                            "id": "2871-4310"
                          },
                          {
                            "dataSource": "CST",
                            "id": "FEVER"
                          },
                          {
                            "dataSource": "DXP",
                            "id": "U001483"
                          },
                          {
                            "dataSource": "GO",
                            "id": "GO:0001660"
                          },
                          {
                            "dataSource": "HPO",
                            "id": "HP:0001945"
                          },
                          {
                            "dataSource": "ICD10",
                            "id": "R50.9"
                          },
                          {
                            "dataSource": "ICD10AM",
                            "id": "R50.9"
                          },
                          {
                            "dataSource": "ICD10CM",
                            "id": "R50.9"
                          },
                          {
                            "dataSource": "ICD9CM",
                            "id": "780.60"
                          },
                          {
                            "dataSource": "ICNP",
                            "id": "10041539"
                          },
                          {
                            "dataSource": "ICPC",
                            "id": "A03"
                          },
                          {
                            "dataSource": "ICPC2EENG",
                            "id": "A03"
                          },
                          {
                            "dataSource": "ICPC2ICD10ENG",
                            "id": "MTHU041751"
                          },
                          {
                            "dataSource": "ICPC2P",
                            "id": "A03002"
                          },
                          {
                            "dataSource": "LCH",
                            "id": "U001776"
                          },
                          {
                            "dataSource": "LCH_NW",
                            "id": "sh85047994"
                          },
                          {
                            "dataSource": "LNC",
                            "id": "MTHU013518"
                          },
                          {
                            "dataSource": "MDR",
                            "id": "10005911"
                          },
                          {
                            "dataSource": "MEDCIN",
                            "id": "6005"
                          },
                          {
                            "dataSource": "MEDLINEPLUS",
                            "id": "511"
                          },
                          {
                            "dataSource": "MSH",
                            "id": "D005334"
                          },
                          {
                            "dataSource": "MTHICD9",
                            "id": "780.60"
                          },
                          {
                            "dataSource": "NANDA-I",
                            "id": "01128"
                          },
                          {
                            "dataSource": "NCI",
                            "id": "C3038"
                          },
                          {
                            "dataSource": "NCI_CTCAE",
                            "id": "E11102"
                          },
                          {
                            "dataSource": "NCI_FDA",
                            "id": "1858"
                          },
                          {
                            "dataSource": "NCI_GDC",
                            "id": "C3038"
                          },
                          {
                            "dataSource": "NCI_NCI-GLOSS",
                            "id": "CDR0000450108"
                          },
                          {
                            "dataSource": "NCI_NICHD",
                            "id": "C3038"
                          },
                          {
                            "dataSource": "NCI_caDSR",
                            "id": "C3038"
                          },
                          {
                            "dataSource": "NOC",
                            "id": "070307"
                          },
                          {
                            "dataSource": "OMIM",
                            "id": "MTHU005439"
                          },
                          {
                            "dataSource": "OMS",
                            "id": "50.03"
                          },
                          {
                            "dataSource": "PCDS",
                            "id": "PRB_11020.02"
                          },
                          {
                            "dataSource": "PDQ",
                            "id": "CDR0000775882"
                          },
                          {
                            "dataSource": "PSY",
                            "id": "23840"
                          },
                          {
                            "dataSource": "QMR",
                            "id": "Q0200115"
                          },
                          {
                            "dataSource": "RCD",
                            "id": "X76EI"
                          },
                          {
                            "dataSource": "SNM",
                            "id": "F-03003"
                          },
                          {
                            "dataSource": "SNMI",
                            "id": "F-03003"
                          },
                          {
                            "dataSource": "SNOMEDCT_US",
                            "id": "386661006"
                          },
                          {
                            "dataSource": "WHO",
                            "id": "0725"
                          }
                        ]
                      },
                      {
                        "offset": 60,
                        "length": 6,
                        "text": "mother",
                        "category": "FamilyRelation",
                        "confidenceScore": 0.99,
                        "name": "Mother (person)",
                        "links": [
                          {
                            "dataSource": "UMLS",
                            "id": "C0026591"
                          },
                          {
                            "dataSource": "AOD",
                            "id": "0000027173"
                          },
                          {
                            "dataSource": "CCPSS",
                            "id": "U000286"
                          },
                          {
                            "dataSource": "CHV",
                            "id": "0000008266"
                          },
                          {
                            "dataSource": "CSP",
                            "id": "1124-5492"
                          },
                          {
                            "dataSource": "HL7V3.0",
                            "id": "MTH"
                          },
                          {
                            "dataSource": "LCH",
                            "id": "U003028"
                          },
                          {
                            "dataSource": "LCH_NW",
                            "id": "sh85087526"
                          },
                          {
                            "dataSource": "LNC",
                            "id": "LA10417-6"
                          },
                          {
                            "dataSource": "MSH",
                            "id": "D009035"
                          },
                          {
                            "dataSource": "NCI",
                            "id": "C25189"
                          },
                          {
                            "dataSource": "NCI_CDISC",
                            "id": "C25189"
                          },
                          {
                            "dataSource": "NCI_GDC",
                            "id": "C25189"
                          },
                          {
                            "dataSource": "NCI_caDSR",
                            "id": "C25189"
                          },
                          {
                            "dataSource": "PSY",
                            "id": "32140"
                          },
                          {
                            "dataSource": "RCD",
                            "id": "X78ym"
                          },
                          {
                            "dataSource": "SNMI",
                            "id": "S-10120"
                          },
                          {
                            "dataSource": "SNOMEDCT_US",
                            "id": "72705000"
                          }
                        ]
                      },
                      {
                        "offset": 77,
                        "length": 10,
                        "text": "Penicillin",
                        "category": "MedicationName",
                        "confidenceScore": 0.84,
                        "assertion": {
                          "certainty": "neutralPossible"
                        },
                        "name": "penicillins",
                        "links": [
                          {
                            "dataSource": "UMLS",
                            "id": "C0030842"
                          },
                          {
                            "dataSource": "AOD",
                            "id": "0000019206"
                          },
                          {
                            "dataSource": "ATC",
                            "id": "J01C"
                          },
                          {
                            "dataSource": "CCPSS",
                            "id": "0014106"
                          },
                          {
                            "dataSource": "CHV",
                            "id": "0000009423"
                          },
                          {
                            "dataSource": "CSP",
                            "id": "0199-8025"
                          },
                          {
                            "dataSource": "GS",
                            "id": "4011"
                          },
                          {
                            "dataSource": "LCH",
                            "id": "U003521"
                          },
                          {
                            "dataSource": "LCH_NW",
                            "id": "sh85099402"
                          },
                          {
                            "dataSource": "LNC",
                            "id": "LP14319-5"
                          },
                          {
                            "dataSource": "MEDCIN",
                            "id": "40319"
                          },
                          {
                            "dataSource": "MMSL",
                            "id": "d00116"
                          },
                          {
                            "dataSource": "MSH",
                            "id": "D010406"
                          },
                          {
                            "dataSource": "NCI",
                            "id": "C1500"
                          },
                          {
                            "dataSource": "NCI_DTP",
                            "id": "NSC0402815"
                          },
                          {
                            "dataSource": "NCI_NCI-GLOSS",
                            "id": "CDR0000045296"
                          },
                          {
                            "dataSource": "NDDF",
                            "id": "016121"
                          },
                          {
                            "dataSource": "PSY",
                            "id": "37190"
                          },
                          {
                            "dataSource": "RCD",
                            "id": "x009C"
                          },
                          {
                            "dataSource": "SNM",
                            "id": "E-7260"
                          },
                          {
                            "dataSource": "SNMI",
                            "id": "C-54000"
                          },
                          {
                            "dataSource": "SNOMEDCT_US",
                            "id": "764146007"
                          },
                          {
                            "dataSource": "VANDF",
                            "id": "4019880"
                          }
                        ]
                      },
                      {
                        "offset": 96,
                        "length": 4,
                        "text": "baby",
                        "category": "FamilyRelation",
                        "confidenceScore": 1.0,
                        "name": "Infant",
                        "links": [
                          {
                            "dataSource": "UMLS",
                            "id": "C0021270"
                          },
                          {
                            "dataSource": "AOD",
                            "id": "0000005273"
                          },
                          {
                            "dataSource": "CCPSS",
                            "id": "0030805"
                          },
                          {
                            "dataSource": "CHV",
                            "id": "0000006675"
                          },
                          {
                            "dataSource": "DXP",
                            "id": "U002089"
                          },
                          {
                            "dataSource": "LCH",
                            "id": "U002421"
                          },
                          {
                            "dataSource": "LCH_NW",
                            "id": "sh85066022"
                          },
                          {
                            "dataSource": "LNC",
                            "id": "LA19747-7"
                          },
                          {
                            "dataSource": "MDR",
                            "id": "10021731"
                          },
                          {
                            "dataSource": "MSH",
                            "id": "D007223"
                          },
                          {
                            "dataSource": "NCI",
                            "id": "C27956"
                          },
                          {
                            "dataSource": "NCI_FDA",
                            "id": "C27956"
                          },
                          {
                            "dataSource": "NCI_NICHD",
                            "id": "C27956"
                          },
                          {
                            "dataSource": "SNOMEDCT_US",
                            "id": "133931009"
                          }
                        ]
                      }
                    ],
                    "relations": [],
                    "warnings": [],
                    "fhirBundle": {
                      "resourceType": "Bundle",
                      "id": "b89e33b6-2eed-48c4-9eb0-54690de4ebac",
                      "meta": {
                        "profile": [
                          "http://hl7.org/fhir/4.0.1/StructureDefinition/Bundle"
                        ]
                      },
                      "identifier": {
                        "system": "urn:ietf:rfc:3986",
                        "value": "urn:uuid:b89e33b6-2eed-48c4-9eb0-54690de4ebac"
                      },
                      "type": "document",
                      "entry": [
                        {
                          "fullUrl": "Composition/3add5fcc-1ada-443f-ba0f-d1918d7275da",
                          "resource": {
                            "resourceType": "Composition",
                            "id": "3add5fcc-1ada-443f-ba0f-d1918d7275da",
                            "status": "final",
                            "type": {
                              "coding": [
                                {
                                  "system": "http://loinc.org",
                                  "code": "11526-1",
                                  "display": "Pathology study"
                                }
                              ],
                              "text": "Pathology study"
                            },
                            "subject": {
                              "reference": "Patient/ac62da79-f2d5-432b-9e9e-47b74cf889b5",
                              "type": "Patient"
                            },
                            "encounter": {
                              "reference": "Encounter/ffacdec7-fef5-4cd4-8bec-08188c818cee",
                              "type": "Encounter",
                              "display": "unknown"
                            },
                            "date": "2022-07-27",
                            "author": [
                              {
                                "reference": "Practitioner/d2f85785-6ddb-4347-84b9-83bf7423ad6d",
                                "type": "Practitioner",
                                "display": "Unknown"
                              }
                            ],
                            "title": "Pathology study",
                            "section": [
                              {
                                "title": "General",
                                "code": {
                                  "coding": [
                                    {
                                      "system": "",
                                      "display": "Unrecognized Section"
                                    }
                                  ],
                                  "text": "General"
                                },
                                "text": {
                                  "div": "\u003Cdiv\u003E\r\n\t\t\t\t\t\t\t\u003Ch1\u003EGeneral\u003C/h1\u003E\r\n\t\t\t\t\t\t\t\u003Cp\u003EBaby not likely to have Meningitis. in case of fever in the mother, consider Penicillin for the baby too.\u003C/p\u003E\r\n\t\t\t\t\t\u003C/div\u003E"
                                },
                                "entry": [
                                  {
                                    "reference": "List/9819fd67-708c-4f36-9bf2-9bfc00ecee6f",
                                    "type": "List",
                                    "display": "General"
                                  }
                                ]
                              }
                            ]
                          }
                        },
                        {
                          "fullUrl": "Practitioner/d2f85785-6ddb-4347-84b9-83bf7423ad6d",
                          "resource": {
                            "resourceType": "Practitioner",
                            "id": "d2f85785-6ddb-4347-84b9-83bf7423ad6d",
                            "extension": [
                              {
                                "extension": [
                                  {
                                    "url": "offset",
                                    "valueInteger": -1
                                  },
                                  {
                                    "url": "length",
                                    "valueInteger": 7
                                  }
                                ],
                                "url": "http://hl7.org/fhir/StructureDefinition/derivation-reference"
                              }
                            ],
                            "name": [
                              {
                                "text": "Unknown",
                                "family": "Unknown"
                              }
                            ]
                          }
                        },
                        {
                          "fullUrl": "Patient/ac62da79-f2d5-432b-9e9e-47b74cf889b5",
                          "resource": {
                            "resourceType": "Patient",
                            "id": "ac62da79-f2d5-432b-9e9e-47b74cf889b5",
                            "gender": "unknown"
                          }
                        },
                        {
                          "fullUrl": "Encounter/ffacdec7-fef5-4cd4-8bec-08188c818cee",
                          "resource": {
                            "resourceType": "Encounter",
                            "id": "ffacdec7-fef5-4cd4-8bec-08188c818cee",
                            "meta": {
                              "profile": [
                                "http://hl7.org/fhir/us/core/StructureDefinition/us-core-encounter"
                              ]
                            },
                            "status": "finished",
                            "class": {
                              "system": "http://terminology.hl7.org/CodeSystem/v3-ActCode",
                              "display": "unknown"
                            },
                            "subject": {
                              "reference": "Patient/ac62da79-f2d5-432b-9e9e-47b74cf889b5",
                              "type": "Patient"
                            }
                          }
                        },
                        {
                          "fullUrl": "Condition/45b9dddd-7ebd-46b1-a053-03851cea14d8",
                          "resource": {
                            "resourceType": "Condition",
                            "id": "45b9dddd-7ebd-46b1-a053-03851cea14d8",
                            "meta": {
                              "profile": [
                                "http://hl7.org/fhir/us/core/StructureDefinition/us-core-condition"
                              ]
                            },
                            "extension": [
                              {
                                "extension": [
                                  {
                                    "url": "offset",
                                    "valueInteger": 24
                                  },
                                  {
                                    "url": "length",
                                    "valueInteger": 10
                                  }
                                ],
                                "url": "http://hl7.org/fhir/StructureDefinition/derivation-reference"
                              }
                            ],
                            "verificationStatus": {
                              "coding": [
                                {
                                  "system": "http://terminology.hl7.org/CodeSystem/condition-ver-status",
                                  "code": "unconfirmed",
                                  "display": "Unconfirmed"
                                }
                              ],
                              "text": "Unconfirmed"
                            },
                            "category": [
                              {
                                "coding": [
                                  {
                                    "system": "http://terminology.hl7.org/CodeSystem/condition-category",
                                    "code": "encounter-diagnosis",
                                    "display": "Encounter Diagnosis"
                                  }
                                ],
                                "text": "Encounter Diagnosis"
                              }
                            ],
                            "code": {
                              "coding": [
                                {
                                  "system": "http://www.nlm.nih.gov/research/umls",
                                  "code": "C0025289",
                                  "display": "Meningitis"
                                },
                                {
                                  "system": "http://www.nlm.nih.gov/research/umls/aod",
                                  "code": "0000006185"
                                },
                                {
                                  "system": "http://www.nlm.nih.gov/research/umls/bi",
                                  "code": "BI00546"
                                },
                                {
                                  "system": "http://www.nlm.nih.gov/research/umls/ccpss",
                                  "code": "1018016"
                                },
                                {
                                  "system": "http://www.nlm.nih.gov/research/umls/ccsr_10",
                                  "code": "NVS001"
                                },
                                {
                                  "system": "http://www.nlm.nih.gov/research/umls/ccsr_icd10cm",
                                  "code": "NVS001"
                                },
                                {
                                  "system": "http://www.nlm.nih.gov/research/umls/chv",
                                  "code": "0000007932"
                                },
                                {
                                  "system": "http://www.nlm.nih.gov/research/umls/costar",
                                  "code": "478"
                                },
                                {
                                  "system": "http://www.nlm.nih.gov/research/umls/csp",
                                  "code": "2042-5301"
                                },
                                {
                                  "system": "http://www.nlm.nih.gov/research/umls/cst",
                                  "code": "MENINGITIS"
                                },
                                {
                                  "system": "http://www.nlm.nih.gov/research/umls/dxp",
                                  "code": "U002543"
                                },
                                {
                                  "system": "http://www.nlm.nih.gov/research/umls/hpo",
                                  "code": "HP:0001287"
                                },
                                {
                                  "system": "http://hl7.org/fhir/sid/icd-10",
                                  "code": "G03.9"
                                },
                                {
                                  "system": "http://hl7.org/fhir/sid/icd-10-am",
                                  "code": "G03.9"
                                },
                                {
                                  "system": "http://hl7.org/fhir/sid/icd-10-cm",
                                  "code": "G03.9"
                                },
                                {
                                  "system": "http://hl7.org/fhir/sid/icd-9-cm",
                                  "code": "322.9"
                                },
                                {
                                  "system": "http://hl7.org/fhir/sid/icpc2icd10eng",
                                  "code": "MTHU048434"
                                },
                                {
                                  "system": "http://hl7.org/fhir/sid/icpc-2p",
                                  "code": "N71002"
                                },
                                {
                                  "system": "http://www.nlm.nih.gov/research/umls/lch",
                                  "code": "U002901"
                                },
                                {
                                  "system": "http://www.nlm.nih.gov/research/umls/lch_nw",
                                  "code": "sh85083562"
                                },
                                {
                                  "system": "http://loinc.org",
                                  "code": "LP20756-0"
                                },
                                {
                                  "system": "http://www.nlm.nih.gov/research/umls/mdr",
                                  "code": "10027199"
                                },
                                {
                                  "system": "http://www.nlm.nih.gov/research/umls/medcin",
                                  "code": "31192"
                                },
                                {
                                  "system": "http://www.nlm.nih.gov/research/umls/medlineplus",
                                  "code": "324"
                                },
                                {
                                  "system": "http://www.nlm.nih.gov/research/umls/msh",
                                  "code": "D008581"
                                },
                                {
                                  "system": "http://www.nlm.nih.gov/research/umls/nanda-i",
                                  "code": "02899"
                                },
                                {
                                  "system": "http://ncimeta.nci.nih.gov",
                                  "code": "C26828"
                                },
                                {
                                  "system": "http://www.nlm.nih.gov/research/umls/nci_cptac",
                                  "code": "C26828"
                                },
                                {
                                  "system": "http://www.nlm.nih.gov/research/umls/nci_ctcae",
                                  "code": "E11458"
                                },
                                {
                                  "system": "http://www.nlm.nih.gov/research/umls/nci_fda",
                                  "code": "2389"
                                },
                                {
                                  "system": "http://www.nlm.nih.gov/research/umls/nci_nci-gloss",
                                  "code": "CDR0000471780"
                                },
                                {
                                  "system": "http://www.nlm.nih.gov/research/umls/nci_nichd",
                                  "code": "C26828"
                                },
                                {
                                  "system": "http://www.nlm.nih.gov/research/umls/nci_cadsr",
                                  "code": "C26828"
                                },
                                {
                                  "system": "http://www.nlm.nih.gov/research/umls/omim",
                                  "code": "MTHU005994"
                                },
                                {
                                  "system": "http://www.nlm.nih.gov/research/umls/psy",
                                  "code": "30660"
                                },
                                {
                                  "system": "http://www.nlm.nih.gov/research/umls/rcd",
                                  "code": "X000H"
                                },
                                {
                                  "system": "http://snomed.info/sct",
                                  "code": "M-40000"
                                },
                                {
                                  "system": "http://snomed.info/sct/900000000000207008",
                                  "code": "DA-10010"
                                },
                                {
                                  "system": "http://snomed.info/sct/731000124108",
                                  "code": "7180009"
                                },
                                {
                                  "system": "http://www.nlm.nih.gov/research/umls/who",
                                  "code": "0955"
                                }
                              ],
                              "text": "Meningitis"
                            },
                            "subject": {
                              "reference": "Patient/ac62da79-f2d5-432b-9e9e-47b74cf889b5",
                              "type": "Patient"
                            },
                            "encounter": {
                              "reference": "Encounter/ffacdec7-fef5-4cd4-8bec-08188c818cee",
                              "type": "Encounter",
                              "display": "unknown"
                            }
                          }
                        },
                        {
                          "fullUrl": "Observation/5ba567c9-a445-47a0-ae1e-1056d7699911",
                          "resource": {
                            "resourceType": "Observation",
                            "id": "5ba567c9-a445-47a0-ae1e-1056d7699911",
                            "extension": [
                              {
                                "extension": [
                                  {
                                    "url": "offset",
                                    "valueInteger": 47
                                  },
                                  {
                                    "url": "length",
                                    "valueInteger": 5
                                  }
                                ],
                                "url": "http://hl7.org/fhir/StructureDefinition/derivation-reference"
                              }
                            ],
                            "status": "final",
                            "category": [
                              {
                                "coding": [
                                  {
                                    "system": "http://terminology.hl7.org/CodeSystem/observation-category",
                                    "code": "exam",
                                    "display": "Exam"
                                  }
                                ],
                                "text": "Exam"
                              }
                            ],
                            "code": {
                              "coding": [
                                {
                                  "system": "http://www.nlm.nih.gov/research/umls",
                                  "code": "C0015967",
                                  "display": "Fever"
                                },
                                {
                                  "system": "http://www.nlm.nih.gov/research/umls/air",
                                  "code": "FEVER"
                                },
                                {
                                  "system": "http://www.nlm.nih.gov/research/umls/aod",
                                  "code": "0000004396"
                                },
                                {
                                  "system": "http://www.nlm.nih.gov/research/umls/bi",
                                  "code": "BI00751"
                                },
                                {
                                  "system": "http://www.nlm.nih.gov/research/umls/ccc",
                                  "code": "K25.2"
                                },
                                {
                                  "system": "http://www.nlm.nih.gov/research/umls/ccpss",
                                  "code": "1017166"
                                },
                                {
                                  "system": "http://www.nlm.nih.gov/research/umls/ccsr_10",
                                  "code": "SYM002"
                                },
                                {
                                  "system": "http://www.nlm.nih.gov/research/umls/ccsr_icd10cm",
                                  "code": "SYM002"
                                },
                                {
                                  "system": "http://www.nlm.nih.gov/research/umls/chv",
                                  "code": "0000005010"
                                },
                                {
                                  "system": "http://www.nlm.nih.gov/research/umls/costar",
                                  "code": "300"
                                },
                                {
                                  "system": "http://www.nlm.nih.gov/research/umls/cpm",
                                  "code": "65287"
                                },
                                {
                                  "system": "http://www.nlm.nih.gov/research/umls/csp",
                                  "code": "2871-4310"
                                },
                                {
                                  "system": "http://www.nlm.nih.gov/research/umls/cst",
                                  "code": "FEVER"
                                },
                                {
                                  "system": "http://www.nlm.nih.gov/research/umls/dxp",
                                  "code": "U001483"
                                },
                                {
                                  "system": "http://www.nlm.nih.gov/research/umls/go",
                                  "code": "GO:0001660"
                                },
                                {
                                  "system": "http://www.nlm.nih.gov/research/umls/hpo",
                                  "code": "HP:0001945"
                                },
                                {
                                  "system": "http://hl7.org/fhir/sid/icd-10",
                                  "code": "R50.9"
                                },
                                {
                                  "system": "http://hl7.org/fhir/sid/icd-10-am",
                                  "code": "R50.9"
                                },
                                {
                                  "system": "http://hl7.org/fhir/sid/icd-10-cm",
                                  "code": "R50.9"
                                },
                                {
                                  "system": "http://hl7.org/fhir/sid/icd-9-cm",
                                  "code": "780.60"
                                },
                                {
                                  "system": "http://www.nlm.nih.gov/research/umls/icnp",
                                  "code": "10041539"
                                },
                                {
                                  "system": "http://www.nlm.nih.gov/research/umls/icpc",
                                  "code": "A03"
                                },
                                {
                                  "system": "http://www.nlm.nih.gov/research/umls/icpc2eeng",
                                  "code": "A03"
                                },
                                {
                                  "system": "http://hl7.org/fhir/sid/icpc2icd10eng",
                                  "code": "MTHU041751"
                                },
                                {
                                  "system": "http://hl7.org/fhir/sid/icpc-2p",
                                  "code": "A03002"
                                },
                                {
                                  "system": "http://www.nlm.nih.gov/research/umls/lch",
                                  "code": "U001776"
                                },
                                {
                                  "system": "http://www.nlm.nih.gov/research/umls/lch_nw",
                                  "code": "sh85047994"
                                },
                                {
                                  "system": "http://loinc.org",
                                  "code": "MTHU013518"
                                },
                                {
                                  "system": "http://www.nlm.nih.gov/research/umls/mdr",
                                  "code": "10005911"
                                },
                                {
                                  "system": "http://www.nlm.nih.gov/research/umls/medcin",
                                  "code": "6005"
                                },
                                {
                                  "system": "http://www.nlm.nih.gov/research/umls/medlineplus",
                                  "code": "511"
                                },
                                {
                                  "system": "http://www.nlm.nih.gov/research/umls/msh",
                                  "code": "D005334"
                                },
                                {
                                  "system": "http://www.nlm.nih.gov/research/umls/mthicd9",
                                  "code": "780.60"
                                },
                                {
                                  "system": "http://www.nlm.nih.gov/research/umls/nanda-i",
                                  "code": "01128"
                                },
                                {
                                  "system": "http://ncimeta.nci.nih.gov",
                                  "code": "C3038"
                                },
                                {
                                  "system": "http://www.nlm.nih.gov/research/umls/nci_ctcae",
                                  "code": "E11102"
                                },
                                {
                                  "system": "http://www.nlm.nih.gov/research/umls/nci_fda",
                                  "code": "1858"
                                },
                                {
                                  "system": "http://www.nlm.nih.gov/research/umls/nci_gdc",
                                  "code": "C3038"
                                },
                                {
                                  "system": "http://www.nlm.nih.gov/research/umls/nci_nci-gloss",
                                  "code": "CDR0000450108"
                                },
                                {
                                  "system": "http://www.nlm.nih.gov/research/umls/nci_nichd",
                                  "code": "C3038"
                                },
                                {
                                  "system": "http://www.nlm.nih.gov/research/umls/nci_cadsr",
                                  "code": "C3038"
                                },
                                {
                                  "system": "http://www.nlm.nih.gov/research/umls/noc",
                                  "code": "070307"
                                },
                                {
                                  "system": "http://www.nlm.nih.gov/research/umls/omim",
                                  "code": "MTHU005439"
                                },
                                {
                                  "system": "http://www.nlm.nih.gov/research/umls/oms",
                                  "code": "50.03"
                                },
                                {
                                  "system": "http://www.nlm.nih.gov/research/umls/pcds",
                                  "code": "PRB_11020.02"
                                },
                                {
                                  "system": "http://www.nlm.nih.gov/research/umls/pdq",
                                  "code": "CDR0000775882"
                                },
                                {
                                  "system": "http://www.nlm.nih.gov/research/umls/psy",
                                  "code": "23840"
                                },
                                {
                                  "system": "http://www.nlm.nih.gov/research/umls/qmr",
                                  "code": "Q0200115"
                                },
                                {
                                  "system": "http://www.nlm.nih.gov/research/umls/rcd",
                                  "code": "X76EI"
                                },
                                {
                                  "system": "http://snomed.info/sct",
                                  "code": "F-03003"
                                },
                                {
                                  "system": "http://snomed.info/sct/900000000000207008",
                                  "code": "F-03003"
                                },
                                {
                                  "system": "http://snomed.info/sct/731000124108",
                                  "code": "386661006"
                                },
                                {
                                  "system": "http://www.nlm.nih.gov/research/umls/who",
                                  "code": "0725"
                                }
                              ],
                              "text": "fever"
                            },
                            "subject": {
                              "reference": "Patient/ac62da79-f2d5-432b-9e9e-47b74cf889b5",
                              "type": "Patient"
                            },
                            "encounter": {
                              "reference": "Encounter/ffacdec7-fef5-4cd4-8bec-08188c818cee",
                              "type": "Encounter",
                              "display": "unknown"
                            },
                            "interpretation": [
                              {
                                "coding": [
                                  {
                                    "system": "http://terminology.hl7.org/CodeSystem/v3-ObservationInterpretation",
                                    "code": "POS",
                                    "display": "Positive"
                                  }
                                ],
                                "text": "Positive"
                              }
                            ]
                          }
                        },
                        {
                          "fullUrl": "MedicationStatement/5097a0da-2006-4805-bd47-4a7f54eb8869",
                          "resource": {
                            "resourceType": "MedicationStatement",
                            "id": "5097a0da-2006-4805-bd47-4a7f54eb8869",
                            "extension": [
                              {
                                "extension": [
                                  {
                                    "url": "offset",
                                    "valueInteger": 77
                                  },
                                  {
                                    "url": "length",
                                    "valueInteger": 10
                                  }
                                ],
                                "url": "http://hl7.org/fhir/StructureDefinition/derivation-reference"
                              }
                            ],
                            "status": "unknown",
                            "medicationCodeableConcept": {
                              "coding": [
                                {
                                  "system": "http://www.nlm.nih.gov/research/umls",
                                  "code": "C0030842",
                                  "display": "penicillins"
                                },
                                {
                                  "system": "http://www.nlm.nih.gov/research/umls/aod",
                                  "code": "0000019206"
                                },
                                {
                                  "system": "http://www.whocc.no/atc",
                                  "code": "J01C"
                                },
                                {
                                  "system": "http://www.nlm.nih.gov/research/umls/ccpss",
                                  "code": "0014106"
                                },
                                {
                                  "system": "http://www.nlm.nih.gov/research/umls/chv",
                                  "code": "0000009423"
                                },
                                {
                                  "system": "http://www.nlm.nih.gov/research/umls/csp",
                                  "code": "0199-8025"
                                },
                                {
                                  "system": "http://www.nlm.nih.gov/research/umls/gs",
                                  "code": "4011"
                                },
                                {
                                  "system": "http://www.nlm.nih.gov/research/umls/lch",
                                  "code": "U003521"
                                },
                                {
                                  "system": "http://www.nlm.nih.gov/research/umls/lch_nw",
                                  "code": "sh85099402"
                                },
                                {
                                  "system": "http://loinc.org",
                                  "code": "LP14319-5"
                                },
                                {
                                  "system": "http://www.nlm.nih.gov/research/umls/medcin",
                                  "code": "40319"
                                },
                                {
                                  "system": "http://www.nlm.nih.gov/research/umls/mmsl",
                                  "code": "d00116"
                                },
                                {
                                  "system": "http://www.nlm.nih.gov/research/umls/msh",
                                  "code": "D010406"
                                },
                                {
                                  "system": "http://ncimeta.nci.nih.gov",
                                  "code": "C1500"
                                },
                                {
                                  "system": "http://www.nlm.nih.gov/research/umls/nci_dtp",
                                  "code": "NSC0402815"
                                },
                                {
                                  "system": "http://www.nlm.nih.gov/research/umls/nci_nci-gloss",
                                  "code": "CDR0000045296"
                                },
                                {
                                  "system": "http://www.nlm.nih.gov/research/umls/nddf",
                                  "code": "016121"
                                },
                                {
                                  "system": "http://www.nlm.nih.gov/research/umls/psy",
                                  "code": "37190"
                                },
                                {
                                  "system": "http://www.nlm.nih.gov/research/umls/rcd",
                                  "code": "x009C"
                                },
                                {
                                  "system": "http://snomed.info/sct",
                                  "code": "E-7260"
                                },
                                {
                                  "system": "http://snomed.info/sct/900000000000207008",
                                  "code": "C-54000"
                                },
                                {
                                  "system": "http://snomed.info/sct/731000124108",
                                  "code": "764146007"
                                },
                                {
                                  "system": "http://hl7.org/fhir/ndfrt",
                                  "code": "4019880"
                                }
                              ],
                              "text": "Penicillin"
                            },
                            "subject": {
                              "reference": "Patient/ac62da79-f2d5-432b-9e9e-47b74cf889b5",
                              "type": "Patient"
                            },
                            "context": {
                              "reference": "Encounter/ffacdec7-fef5-4cd4-8bec-08188c818cee",
                              "type": "Encounter",
                              "display": "unknown"
                            }
                          }
                        },
                        {
                          "fullUrl": "List/9819fd67-708c-4f36-9bf2-9bfc00ecee6f",
                          "resource": {
                            "resourceType": "List",
                            "id": "9819fd67-708c-4f36-9bf2-9bfc00ecee6f",
                            "status": "current",
                            "mode": "snapshot",
                            "title": "General",
                            "subject": {
                              "reference": "Patient/ac62da79-f2d5-432b-9e9e-47b74cf889b5",
                              "type": "Patient"
                            },
                            "encounter": {
                              "reference": "Encounter/ffacdec7-fef5-4cd4-8bec-08188c818cee",
                              "type": "Encounter",
                              "display": "unknown"
                            },
                            "entry": [
                              {
                                "item": {
                                  "reference": "Condition/45b9dddd-7ebd-46b1-a053-03851cea14d8",
                                  "type": "Condition",
                                  "display": "Meningitis"
                                }
                              },
                              {
                                "item": {
                                  "reference": "Observation/5ba567c9-a445-47a0-ae1e-1056d7699911",
                                  "type": "Observation",
                                  "display": "fever"
                                }
                              },
                              {
                                "item": {
                                  "reference": "MedicationStatement/5097a0da-2006-4805-bd47-4a7f54eb8869",
                                  "type": "MedicationStatement",
                                  "display": "Penicillin"
                                }
                              }
                            ]
                          }
                        }
                      ]
                    }
                  }
                ],
                "errors": [],
                "modelVersion": "2022-03-01"
              }
            }
          ]
        }
      }
    }
  ],
  "Variables": {}
}
