{
  "Entries": [
    {
      "RequestUri": "https://endpoint/language/analyze-text/jobs?api-version=2022-04-01-preview",
      "RequestMethod": "POST",
      "RequestHeaders": {
        "Accept": "application/json",
        "Accept-Encoding": "gzip, deflate, br",
        "Accept-Language": "en-US",
        "Connection": "keep-alive",
        "Content-Length": "413",
        "Content-Type": "application/json",
        "ocp-apim-subscription-key": "api_key",
        "Referer": "http://localhost:9876/",
        "sec-ch-ua": "",
        "sec-ch-ua-mobile": "?0",
        "sec-ch-ua-platform": "",
        "Sec-Fetch-Dest": "empty",
        "Sec-Fetch-Mode": "cors",
        "Sec-Fetch-Site": "same-site",
        "User-Agent": "Mozilla/5.0 (X11; Linux x86_64) AppleWebKit/537.36 (KHTML, like Gecko) HeadlessChrome/100.0.4889.0 Safari/537.36",
        "x-ms-client-request-id": "9d305014-d7ae-4162-bdb4-625ef2b9d4e2",
        "x-ms-useragent": "azsdk-js-ai-text-analytics/6.0.0-beta.1 core-rest-pipeline/1.8.1 OS/Linuxx86_64"
      },
      "RequestBody": {
        "analysisInput": {
          "documents": [
            {
              "id": "0",
              "text": "Patient does not suffer from high blood pressure.",
              "language": "en"
            },
            {
              "id": "1",
              "text": "Prescribed 100mg ibuprofen, taken twice daily.",
              "language": "en"
            },
            {
              "id": "2",
              "text": "Baby not likely to have Meningitis. in case of fever in the mother, consider Penicillin for the baby too.",
              "language": "en"
            }
          ]
        },
        "tasks": [
          {
            "kind": "Healthcare",
            "parameters": {
              "fhirVersion": "4.0.1"
            }
          }
        ]
      },
      "StatusCode": 202,
      "ResponseHeaders": {
        "apim-request-id": "20285fbb-4668-466c-9781-5d8b361d7a88",
        "Content-Length": "0",
        "Date": "Fri, 06 May 2022 20:06:36 GMT",
        "operation-location": "https://endpoint/language/analyze-text/jobs/20cd2985-6811-4d7a-9087-18f4e7499d9e?api-version=2022-04-01-preview",
        "Strict-Transport-Security": "max-age=31536000; includeSubDomains; preload",
        "X-Content-Type-Options": "nosniff",
        "x-envoy-upstream-service-time": "167"
      },
      "ResponseBody": null
    },
    {
      "RequestUri": "https://endpoint/language/analyze-text/jobs/20cd2985-6811-4d7a-9087-18f4e7499d9e?api-version=2022-04-01-preview",
      "RequestMethod": "GET",
      "RequestHeaders": {
        "Accept": "application/json",
        "Accept-Encoding": "gzip, deflate, br",
        "Accept-Language": "en-US",
        "Connection": "keep-alive",
        "ocp-apim-subscription-key": "api_key",
        "Referer": "http://localhost:9876/",
        "sec-ch-ua": "",
        "sec-ch-ua-mobile": "?0",
        "sec-ch-ua-platform": "",
        "Sec-Fetch-Dest": "empty",
        "Sec-Fetch-Mode": "cors",
        "Sec-Fetch-Site": "same-site",
        "User-Agent": "Mozilla/5.0 (X11; Linux x86_64) AppleWebKit/537.36 (KHTML, like Gecko) HeadlessChrome/100.0.4889.0 Safari/537.36",
        "x-ms-client-request-id": "99c022b3-3e92-42a5-b537-3e46f915bbdd",
        "x-ms-useragent": "azsdk-js-ai-text-analytics/6.0.0-beta.1 core-rest-pipeline/1.8.1 OS/Linuxx86_64"
      },
      "RequestBody": null,
      "StatusCode": 200,
      "ResponseHeaders": {
        "apim-request-id": "d74a597f-1a2d-4f41-9846-b250d80005fd",
        "Content-Length": "282",
        "Content-Type": "application/json; charset=utf-8",
        "Date": "Fri, 06 May 2022 20:06:36 GMT",
        "Strict-Transport-Security": "max-age=31536000; includeSubDomains; preload",
        "X-Content-Type-Options": "nosniff",
        "x-envoy-upstream-service-time": "7"
      },
      "ResponseBody": {
        "jobId": "20cd2985-6811-4d7a-9087-18f4e7499d9e",
        "lastUpdateDateTime": "2022-05-06T20:06:36Z",
        "createdDateTime": "2022-05-06T20:06:36Z",
        "expirationDateTime": "2022-05-07T20:06:36Z",
        "status": "notStarted",
        "errors": [],
        "tasks": {
          "completed": 0,
          "failed": 0,
          "inProgress": 1,
          "total": 1,
          "items": []
        }
      }
    },
    {
      "RequestUri": "https://endpoint/language/analyze-text/jobs/20cd2985-6811-4d7a-9087-18f4e7499d9e?api-version=2022-04-01-preview",
      "RequestMethod": "GET",
      "RequestHeaders": {
        "Accept": "application/json",
        "Accept-Encoding": "gzip, deflate, br",
        "Accept-Language": "en-US",
        "Connection": "keep-alive",
        "ocp-apim-subscription-key": "api_key",
        "Referer": "http://localhost:9876/",
        "sec-ch-ua": "",
        "sec-ch-ua-mobile": "?0",
        "sec-ch-ua-platform": "",
        "Sec-Fetch-Dest": "empty",
        "Sec-Fetch-Mode": "cors",
        "Sec-Fetch-Site": "same-site",
        "User-Agent": "Mozilla/5.0 (X11; Linux x86_64) AppleWebKit/537.36 (KHTML, like Gecko) HeadlessChrome/100.0.4889.0 Safari/537.36",
        "x-ms-client-request-id": "c311f4a4-2942-4b75-ab5c-dd8e72c89e96",
        "x-ms-useragent": "azsdk-js-ai-text-analytics/6.0.0-beta.1 core-rest-pipeline/1.8.1 OS/Linuxx86_64"
      },
      "RequestBody": null,
      "StatusCode": 200,
      "ResponseHeaders": {
        "apim-request-id": "7b5812b2-8e66-4343-9155-71e4e0182d30",
        "Content-Length": "282",
        "Content-Type": "application/json; charset=utf-8",
        "Date": "Fri, 06 May 2022 20:06:36 GMT",
        "Strict-Transport-Security": "max-age=31536000; includeSubDomains; preload",
        "X-Content-Type-Options": "nosniff",
        "x-envoy-upstream-service-time": "8"
      },
      "ResponseBody": {
        "jobId": "20cd2985-6811-4d7a-9087-18f4e7499d9e",
        "lastUpdateDateTime": "2022-05-06T20:06:36Z",
        "createdDateTime": "2022-05-06T20:06:36Z",
        "expirationDateTime": "2022-05-07T20:06:36Z",
        "status": "notStarted",
        "errors": [],
        "tasks": {
          "completed": 0,
          "failed": 0,
          "inProgress": 1,
          "total": 1,
          "items": []
        }
      }
    },
    {
      "RequestUri": "https://endpoint/language/analyze-text/jobs/20cd2985-6811-4d7a-9087-18f4e7499d9e?api-version=2022-04-01-preview",
      "RequestMethod": "GET",
      "RequestHeaders": {
        "Accept": "application/json",
        "Accept-Encoding": "gzip, deflate, br",
        "Accept-Language": "en-US",
        "Connection": "keep-alive",
        "ocp-apim-subscription-key": "api_key",
        "Referer": "http://localhost:9876/",
        "sec-ch-ua": "",
        "sec-ch-ua-mobile": "?0",
        "sec-ch-ua-platform": "",
        "Sec-Fetch-Dest": "empty",
        "Sec-Fetch-Mode": "cors",
        "Sec-Fetch-Site": "same-site",
        "User-Agent": "Mozilla/5.0 (X11; Linux x86_64) AppleWebKit/537.36 (KHTML, like Gecko) HeadlessChrome/100.0.4889.0 Safari/537.36",
        "x-ms-client-request-id": "b0b80c56-5c1e-4a3b-96a6-35ca1793c43b",
        "x-ms-useragent": "azsdk-js-ai-text-analytics/6.0.0-beta.1 core-rest-pipeline/1.8.1 OS/Linuxx86_64"
      },
      "RequestBody": null,
      "StatusCode": 200,
      "ResponseHeaders": {
        "apim-request-id": "2aba4248-524b-4c24-a414-d87c4330bcb8",
        "Content-Length": "37747",
        "Content-Type": "application/json; charset=utf-8",
        "Date": "Fri, 06 May 2022 20:06:38 GMT",
        "Strict-Transport-Security": "max-age=31536000; includeSubDomains; preload",
        "X-Content-Type-Options": "nosniff",
        "x-envoy-upstream-service-time": "57"
      },
      "ResponseBody": {
        "jobId": "20cd2985-6811-4d7a-9087-18f4e7499d9e",
        "lastUpdateDateTime": "2022-05-06T20:06:37Z",
        "createdDateTime": "2022-05-06T20:06:36Z",
        "expirationDateTime": "2022-05-07T20:06:36Z",
        "status": "succeeded",
        "errors": [],
        "tasks": {
          "completed": 1,
          "failed": 0,
          "inProgress": 0,
          "total": 1,
          "items": [
            {
              "kind": "HealthcareLROResults",
              "lastUpdateDateTime": "2022-05-06T20:06:37.9920781Z",
              "status": "succeeded",
              "results": {
                "documents": [
                  {
                    "id": "0",
                    "entities": [
                      {
                        "offset": 29,
                        "length": 19,
                        "text": "high blood pressure",
                        "category": "SymptomOrSign",
                        "confidenceScore": 1.0,
                        "assertion": {
                          "certainty": "negative"
                        },
                        "name": "Hypertensive disease",
                        "links": [
                          {
                            "dataSource": "UMLS",
                            "id": "C0020538"
                          },
                          {
                            "dataSource": "AOD",
                            "id": "0000023317"
                          },
                          {
                            "dataSource": "BI",
                            "id": "BI00001"
                          },
                          {
                            "dataSource": "CCPSS",
                            "id": "1017493"
                          },
                          {
                            "dataSource": "CCS",
                            "id": "7.1"
                          },
                          {
                            "dataSource": "CHV",
                            "id": "0000015800"
                          },
                          {
                            "dataSource": "COSTAR",
                            "id": "397"
                          },
                          {
                            "dataSource": "CSP",
                            "id": "0571-5243"
                          },
                          {
                            "dataSource": "CST",
                            "id": "HYPERTENS"
                          },
                          {
                            "dataSource": "DXP",
                            "id": "U002034"
                          },
                          {
                            "dataSource": "HPO",
                            "id": "HP:0000822"
                          },
                          {
                            "dataSource": "ICD10",
                            "id": "I10-I15.9"
                          },
                          {
                            "dataSource": "ICD10AM",
                            "id": "I10-I15.9"
                          },
                          {
                            "dataSource": "ICD10CM",
                            "id": "I10"
                          },
                          {
                            "dataSource": "ICD9CM",
                            "id": "997.91"
                          },
                          {
                            "dataSource": "ICPC2ICD10ENG",
                            "id": "MTHU035456"
                          },
                          {
                            "dataSource": "ICPC2P",
                            "id": "K85004"
                          },
                          {
                            "dataSource": "LCH",
                            "id": "U002317"
                          },
                          {
                            "dataSource": "LCH_NW",
                            "id": "sh85063723"
                          },
                          {
                            "dataSource": "LNC",
                            "id": "LA14293-7"
                          },
                          {
                            "dataSource": "MDR",
                            "id": "10020772"
                          },
                          {
                            "dataSource": "MEDCIN",
                            "id": "33288"
                          },
                          {
                            "dataSource": "MEDLINEPLUS",
                            "id": "34"
                          },
                          {
                            "dataSource": "MSH",
                            "id": "D006973"
                          },
                          {
                            "dataSource": "MTH",
                            "id": "005"
                          },
                          {
                            "dataSource": "MTHICD9",
                            "id": "997.91"
                          },
                          {
                            "dataSource": "NANDA-I",
                            "id": "00905"
                          },
                          {
                            "dataSource": "NCI",
                            "id": "C3117"
                          },
                          {
                            "dataSource": "NCI_CPTAC",
                            "id": "C3117"
                          },
                          {
                            "dataSource": "NCI_CTCAE",
                            "id": "E13785"
                          },
                          {
                            "dataSource": "NCI_CTRP",
                            "id": "C3117"
                          },
                          {
                            "dataSource": "NCI_FDA",
                            "id": "1908"
                          },
                          {
                            "dataSource": "NCI_GDC",
                            "id": "C3117"
                          },
                          {
                            "dataSource": "NCI_NCI-GLOSS",
                            "id": "CDR0000458091"
                          },
                          {
                            "dataSource": "NCI_NICHD",
                            "id": "C3117"
                          },
                          {
                            "dataSource": "NCI_caDSR",
                            "id": "C3117"
                          },
                          {
                            "dataSource": "NOC",
                            "id": "060808"
                          },
                          {
                            "dataSource": "OMIM",
                            "id": "MTHU002068"
                          },
                          {
                            "dataSource": "PCDS",
                            "id": "PRB_11000.06"
                          },
                          {
                            "dataSource": "PDQ",
                            "id": "CDR0000686951"
                          },
                          {
                            "dataSource": "PSY",
                            "id": "23830"
                          },
                          {
                            "dataSource": "RCD",
                            "id": "XE0Ub"
                          },
                          {
                            "dataSource": "SNM",
                            "id": "F-70700"
                          },
                          {
                            "dataSource": "SNMI",
                            "id": "D3-02000"
                          },
                          {
                            "dataSource": "SNOMEDCT_US",
                            "id": "38341003"
                          },
                          {
                            "dataSource": "WHO",
                            "id": "0210"
                          }
                        ]
                      }
                    ],
                    "relations": [],
                    "warnings": [],
                    "fhirBundle": {
                      "resourceType": "Bundle",
                      "id": "602ebc05-b32e-4b9c-b27a-0a9de6bfb0ac",
                      "meta": {
                        "profile": [
                          "http://hl7.org/fhir/4.0.1/StructureDefinition/Bundle"
                        ]
                      },
                      "identifier": {
                        "system": "urn:ietf:rfc:3986",
                        "value": "urn:uuid:602ebc05-b32e-4b9c-b27a-0a9de6bfb0ac"
                      },
                      "type": "document",
                      "entry": [
                        {
                          "fullUrl": "Composition/2ce406a1-bcf6-4cbb-919c-85280dac2d96",
                          "resource": {
                            "resourceType": "Composition",
                            "id": "2ce406a1-bcf6-4cbb-919c-85280dac2d96",
                            "status": "final",
                            "type": {
                              "coding": [
                                {
                                  "system": "http://loinc.org",
                                  "code": "11526-1",
                                  "display": "Pathology study"
                                }
                              ],
                              "text": "Pathology study"
                            },
                            "subject": {
                              "reference": "Patient/f506b190-bbe4-41da-bb76-bd526f642ed5",
                              "type": "Patient"
                            },
                            "encounter": {
                              "reference": "Encounter/9f606072-2020-4c24-a168-4031f067fcc0",
                              "type": "Encounter",
                              "display": "unknown"
                            },
                            "date": "2022-05-06",
                            "author": [
                              {
                                "reference": "Practitioner/4bb5053d-a8e0-4850-9aac-e21acb61fd9e",
                                "type": "Practitioner",
                                "display": "Unknown"
                              }
                            ],
                            "title": "Pathology study",
                            "section": [
                              {
                                "title": "General",
                                "code": {
                                  "coding": [
                                    {
                                      "system": "",
                                      "display": "Unrecognized Section"
                                    }
                                  ],
                                  "text": "General"
                                },
                                "text": {
                                  "div": "\u003Cdiv\u003E\r\n\t\t\t\t\t\t\t\u003Ch1\u003EGeneral\u003C/h1\u003E\r\n\t\t\t\t\t\t\t\u003Cp\u003EPatient does not suffer from high blood pressure.\u003C/p\u003E\r\n\t\t\t\t\t\u003C/div\u003E"
                                },
                                "entry": [
                                  {
                                    "reference": "List/bcce0d13-9f40-413d-a6c3-ea47ff7e63cc",
                                    "type": "List",
                                    "display": "General"
                                  }
                                ]
                              }
                            ]
                          }
                        },
                        {
                          "fullUrl": "Practitioner/4bb5053d-a8e0-4850-9aac-e21acb61fd9e",
                          "resource": {
                            "resourceType": "Practitioner",
                            "id": "4bb5053d-a8e0-4850-9aac-e21acb61fd9e",
                            "extension": [
                              {
                                "extension": [
                                  {
                                    "url": "offset",
                                    "valueInteger": -1
                                  },
                                  {
                                    "url": "length",
                                    "valueInteger": 7
                                  }
                                ],
                                "url": "http://hl7.org/fhir/StructureDefinition/derivation-reference"
                              }
                            ],
                            "name": [
                              {
                                "text": "Unknown",
                                "family": "Unknown"
                              }
                            ]
                          }
                        },
                        {
                          "fullUrl": "Patient/f506b190-bbe4-41da-bb76-bd526f642ed5",
                          "resource": {
                            "resourceType": "Patient",
                            "id": "f506b190-bbe4-41da-bb76-bd526f642ed5",
                            "gender": "unknown"
                          }
                        },
                        {
                          "fullUrl": "Encounter/9f606072-2020-4c24-a168-4031f067fcc0",
                          "resource": {
                            "resourceType": "Encounter",
                            "id": "9f606072-2020-4c24-a168-4031f067fcc0",
                            "meta": {
                              "profile": [
                                "http://hl7.org/fhir/us/core/StructureDefinition/us-core-encounter"
                              ]
                            },
                            "status": "finished",
                            "class": {
                              "system": "http://terminology.hl7.org/CodeSystem/v3-ActCode",
                              "display": "unknown"
                            },
                            "subject": {
                              "reference": "Patient/f506b190-bbe4-41da-bb76-bd526f642ed5",
                              "type": "Patient"
                            }
                          }
                        },
                        {
                          "fullUrl": "Observation/82702fc3-0b2e-44f7-96e2-10858df5fdce",
                          "resource": {
                            "resourceType": "Observation",
                            "id": "82702fc3-0b2e-44f7-96e2-10858df5fdce",
                            "extension": [
                              {
                                "extension": [
                                  {
                                    "url": "offset",
                                    "valueInteger": 29
                                  },
                                  {
                                    "url": "length",
                                    "valueInteger": 19
                                  }
                                ],
                                "url": "http://hl7.org/fhir/StructureDefinition/derivation-reference"
                              }
                            ],
                            "status": "final",
                            "category": [
                              {
                                "coding": [
                                  {
                                    "system": "http://terminology.hl7.org/CodeSystem/observation-category",
                                    "code": "exam",
                                    "display": "Exam"
                                  }
                                ],
                                "text": "Exam"
                              }
                            ],
                            "code": {
                              "coding": [
                                {
                                  "system": "http://www.nlm.nih.gov/research/umls",
                                  "code": "C0020538",
                                  "display": "high blood pressure"
                                },
                                {
                                  "system": "http://www.nlm.nih.gov/research/umls/aod",
                                  "code": "0000023317"
                                },
                                {
                                  "system": "http://www.nlm.nih.gov/research/umls/bi",
                                  "code": "BI00001"
                                },
                                {
                                  "system": "http://www.nlm.nih.gov/research/umls/ccpss",
                                  "code": "1017493"
                                },
                                {
                                  "system": "http://www.nlm.nih.gov/research/umls/ccs",
                                  "code": "7.1"
                                },
                                {
                                  "system": "http://www.nlm.nih.gov/research/umls/chv",
                                  "code": "0000015800"
                                },
                                {
                                  "system": "http://www.nlm.nih.gov/research/umls/costar",
                                  "code": "397"
                                },
                                {
                                  "system": "http://www.nlm.nih.gov/research/umls/csp",
                                  "code": "0571-5243"
                                },
                                {
                                  "system": "http://www.nlm.nih.gov/research/umls/cst",
                                  "code": "HYPERTENS"
                                },
                                {
                                  "system": "http://www.nlm.nih.gov/research/umls/dxp",
                                  "code": "U002034"
                                },
                                {
                                  "system": "http://www.nlm.nih.gov/research/umls/hpo",
                                  "code": "HP:0000822"
                                },
                                {
                                  "system": "http://hl7.org/fhir/sid/icd-10",
                                  "code": "I10-I15.9"
                                },
                                {
                                  "system": "http://hl7.org/fhir/sid/icd-10-am",
                                  "code": "I10-I15.9"
                                },
                                {
                                  "system": "http://hl7.org/fhir/sid/icd-10-cm",
                                  "code": "I10"
                                },
                                {
                                  "system": "http://hl7.org/fhir/sid/icd-9-cm",
                                  "code": "997.91"
                                },
                                {
                                  "system": "http://hl7.org/fhir/sid/icpc2icd10eng",
                                  "code": "MTHU035456"
                                },
                                {
                                  "system": "http://hl7.org/fhir/sid/icpc-2p",
                                  "code": "K85004"
                                },
                                {
                                  "system": "http://www.nlm.nih.gov/research/umls/lch",
                                  "code": "U002317"
                                },
                                {
                                  "system": "http://www.nlm.nih.gov/research/umls/lch_nw",
                                  "code": "sh85063723"
                                },
                                {
                                  "system": "http://loinc.org",
                                  "code": "LA14293-7"
                                },
                                {
                                  "system": "http://www.nlm.nih.gov/research/umls/mdr",
                                  "code": "10020772"
                                },
                                {
                                  "system": "http://www.nlm.nih.gov/research/umls/medcin",
                                  "code": "33288"
                                },
                                {
                                  "system": "http://www.nlm.nih.gov/research/umls/medlineplus",
                                  "code": "34"
                                },
                                {
                                  "system": "http://www.nlm.nih.gov/research/umls/msh",
                                  "code": "D006973"
                                },
                                {
                                  "system": "http://www.nlm.nih.gov/research/umls/mth",
                                  "code": "005"
                                },
                                {
                                  "system": "http://www.nlm.nih.gov/research/umls/mthicd9",
                                  "code": "997.91"
                                },
                                {
                                  "system": "http://www.nlm.nih.gov/research/umls/nanda-i",
                                  "code": "00905"
                                },
                                {
                                  "system": "http://ncimeta.nci.nih.gov",
                                  "code": "C3117"
                                },
                                {
                                  "system": "http://www.nlm.nih.gov/research/umls/nci_cptac",
                                  "code": "C3117"
                                },
                                {
                                  "system": "http://www.nlm.nih.gov/research/umls/nci_ctcae",
                                  "code": "E13785"
                                },
                                {
                                  "system": "http://www.nlm.nih.gov/research/umls/nci_ctrp",
                                  "code": "C3117"
                                },
                                {
                                  "system": "http://www.nlm.nih.gov/research/umls/nci_fda",
                                  "code": "1908"
                                },
                                {
                                  "system": "http://www.nlm.nih.gov/research/umls/nci_gdc",
                                  "code": "C3117"
                                },
                                {
                                  "system": "http://www.nlm.nih.gov/research/umls/nci_nci-gloss",
                                  "code": "CDR0000458091"
                                },
                                {
                                  "system": "http://www.nlm.nih.gov/research/umls/nci_nichd",
                                  "code": "C3117"
                                },
                                {
                                  "system": "http://www.nlm.nih.gov/research/umls/nci_cadsr",
                                  "code": "C3117"
                                },
                                {
                                  "system": "http://www.nlm.nih.gov/research/umls/noc",
                                  "code": "060808"
                                },
                                {
                                  "system": "http://www.nlm.nih.gov/research/umls/omim",
                                  "code": "MTHU002068"
                                },
                                {
                                  "system": "http://www.nlm.nih.gov/research/umls/pcds",
                                  "code": "PRB_11000.06"
                                },
                                {
                                  "system": "http://www.nlm.nih.gov/research/umls/pdq",
                                  "code": "CDR0000686951"
                                },
                                {
                                  "system": "http://www.nlm.nih.gov/research/umls/psy",
                                  "code": "23830"
                                },
                                {
                                  "system": "http://www.nlm.nih.gov/research/umls/rcd",
                                  "code": "XE0Ub"
                                },
                                {
                                  "system": "http://snomed.info/sct",
                                  "code": "F-70700"
                                },
                                {
                                  "system": "http://snomed.info/sct/900000000000207008",
                                  "code": "D3-02000"
                                },
                                {
                                  "system": "http://snomed.info/sct/731000124108",
                                  "code": "38341003"
                                },
                                {
                                  "system": "http://www.nlm.nih.gov/research/umls/who",
                                  "code": "0210"
                                }
                              ],
                              "text": "high blood pressure"
                            },
                            "subject": {
                              "reference": "Patient/f506b190-bbe4-41da-bb76-bd526f642ed5",
                              "type": "Patient"
                            },
                            "encounter": {
                              "reference": "Encounter/9f606072-2020-4c24-a168-4031f067fcc0",
                              "type": "Encounter",
                              "display": "unknown"
                            },
                            "interpretation": [
                              {
                                "coding": [
                                  {
                                    "system": "http://terminology.hl7.org/CodeSystem/v3-ObservationInterpretation",
                                    "code": "POS",
                                    "display": "Positive"
                                  }
                                ],
                                "text": "Positive"
                              }
                            ]
                          }
                        },
                        {
                          "fullUrl": "List/bcce0d13-9f40-413d-a6c3-ea47ff7e63cc",
                          "resource": {
                            "resourceType": "List",
                            "id": "bcce0d13-9f40-413d-a6c3-ea47ff7e63cc",
                            "status": "current",
                            "mode": "snapshot",
                            "title": "General",
                            "subject": {
                              "reference": "Patient/f506b190-bbe4-41da-bb76-bd526f642ed5",
                              "type": "Patient"
                            },
                            "encounter": {
                              "reference": "Encounter/9f606072-2020-4c24-a168-4031f067fcc0",
                              "type": "Encounter",
                              "display": "unknown"
                            },
                            "entry": [
                              {
                                "item": {
                                  "reference": "Observation/82702fc3-0b2e-44f7-96e2-10858df5fdce",
                                  "type": "Observation",
                                  "display": "high blood pressure"
                                }
                              }
                            ]
                          }
                        }
                      ]
                    }
                  },
                  {
                    "id": "1",
                    "entities": [
                      {
                        "offset": 11,
                        "length": 5,
                        "text": "100mg",
                        "category": "Dosage",
                        "confidenceScore": 0.98
                      },
                      {
                        "offset": 17,
                        "length": 9,
                        "text": "ibuprofen",
                        "category": "MedicationName",
                        "confidenceScore": 1.0,
                        "name": "ibuprofen",
                        "links": [
                          {
                            "dataSource": "UMLS",
                            "id": "C0020740"
                          },
                          {
                            "dataSource": "AOD",
                            "id": "0000019879"
                          },
                          {
                            "dataSource": "ATC",
                            "id": "M01AE01"
                          },
                          {
                            "dataSource": "CCPSS",
                            "id": "0046165"
                          },
                          {
                            "dataSource": "CHV",
                            "id": "0000006519"
                          },
                          {
                            "dataSource": "CSP",
                            "id": "2270-2077"
                          },
                          {
                            "dataSource": "DRUGBANK",
                            "id": "DB01050"
                          },
                          {
                            "dataSource": "GS",
                            "id": "1611"
                          },
                          {
                            "dataSource": "LCH_NW",
                            "id": "sh97005926"
                          },
                          {
                            "dataSource": "LNC",
                            "id": "LP16165-0"
                          },
                          {
                            "dataSource": "MEDCIN",
                            "id": "40458"
                          },
                          {
                            "dataSource": "MMSL",
                            "id": "d00015"
                          },
                          {
                            "dataSource": "MSH",
                            "id": "D007052"
                          },
                          {
                            "dataSource": "MTHSPL",
                            "id": "WK2XYI10QM"
                          },
                          {
                            "dataSource": "NCI",
                            "id": "C561"
                          },
                          {
                            "dataSource": "NCI_CTRP",
                            "id": "C561"
                          },
                          {
                            "dataSource": "NCI_DCP",
                            "id": "00803"
                          },
                          {
                            "dataSource": "NCI_DTP",
                            "id": "NSC0256857"
                          },
                          {
                            "dataSource": "NCI_FDA",
                            "id": "WK2XYI10QM"
                          },
                          {
                            "dataSource": "NCI_NCI-GLOSS",
                            "id": "CDR0000613511"
                          },
                          {
                            "dataSource": "NDDF",
                            "id": "002377"
                          },
                          {
                            "dataSource": "PDQ",
                            "id": "CDR0000040475"
                          },
                          {
                            "dataSource": "RCD",
                            "id": "x02MO"
                          },
                          {
                            "dataSource": "RXNORM",
                            "id": "5640"
                          },
                          {
                            "dataSource": "SNM",
                            "id": "E-7772"
                          },
                          {
                            "dataSource": "SNMI",
                            "id": "C-603C0"
                          },
                          {
                            "dataSource": "SNOMEDCT_US",
                            "id": "387207008"
                          },
                          {
                            "dataSource": "USP",
                            "id": "m39860"
                          },
                          {
                            "dataSource": "USPMG",
                            "id": "MTHU000060"
                          },
                          {
                            "dataSource": "VANDF",
                            "id": "4017840"
                          }
                        ]
                      },
                      {
                        "offset": 34,
                        "length": 11,
                        "text": "twice daily",
                        "category": "Frequency",
                        "confidenceScore": 1.0
                      }
                    ],
                    "relations": [
                      {
                        "relationType": "DosageOfMedication",
                        "entities": [
                          {
                            "ref": "#/results/documents/1/entities/0",
                            "role": "Dosage"
                          },
                          {
                            "ref": "#/results/documents/1/entities/1",
                            "role": "Medication"
                          }
                        ]
                      },
                      {
                        "relationType": "FrequencyOfMedication",
                        "entities": [
                          {
                            "ref": "#/results/documents/1/entities/1",
                            "role": "Medication"
                          },
                          {
                            "ref": "#/results/documents/1/entities/2",
                            "role": "Frequency"
                          }
                        ]
                      }
                    ],
                    "warnings": [],
                    "fhirBundle": {
                      "resourceType": "Bundle",
                      "id": "3cff7d88-bd57-44b3-9174-241e3d39f616",
                      "meta": {
                        "profile": [
                          "http://hl7.org/fhir/4.0.1/StructureDefinition/Bundle"
                        ]
                      },
                      "identifier": {
                        "system": "urn:ietf:rfc:3986",
                        "value": "urn:uuid:3cff7d88-bd57-44b3-9174-241e3d39f616"
                      },
                      "type": "document",
                      "entry": [
                        {
                          "fullUrl": "Composition/9bc202d9-563a-4df7-b74b-3bb861354f82",
                          "resource": {
                            "resourceType": "Composition",
                            "id": "9bc202d9-563a-4df7-b74b-3bb861354f82",
                            "status": "final",
                            "type": {
                              "coding": [
                                {
                                  "system": "http://loinc.org",
                                  "code": "11526-1",
                                  "display": "Pathology study"
                                }
                              ],
                              "text": "Pathology study"
                            },
                            "subject": {
                              "reference": "Patient/d0b72341-a397-4df5-85ce-6cc09cc9f0b6",
                              "type": "Patient"
                            },
                            "encounter": {
                              "reference": "Encounter/27b4f1f5-9b27-4e97-a382-343442f2bc1c",
                              "type": "Encounter",
                              "display": "unknown"
                            },
                            "date": "2022-05-06",
                            "author": [
                              {
                                "reference": "Practitioner/48959fef-e275-41ee-930f-91e20a87d9b3",
                                "type": "Practitioner",
                                "display": "Unknown"
                              }
                            ],
                            "title": "Pathology study",
                            "section": [
                              {
                                "title": "General",
                                "code": {
                                  "coding": [
                                    {
                                      "system": "",
                                      "display": "Unrecognized Section"
                                    }
                                  ],
                                  "text": "General"
                                },
                                "text": {
                                  "div": "\u003Cdiv\u003E\r\n\t\t\t\t\t\t\t\u003Ch1\u003EGeneral\u003C/h1\u003E\r\n\t\t\t\t\t\t\t\u003Cp\u003EPrescribed 100mg ibuprofen, taken twice daily.\u003C/p\u003E\r\n\t\t\t\t\t\u003C/div\u003E"
                                },
                                "entry": [
                                  {
                                    "reference": "List/c90e2dbe-7a04-4515-a1ba-50b209ae1505",
                                    "type": "List",
                                    "display": "General"
                                  }
                                ]
                              }
                            ]
                          }
                        },
                        {
                          "fullUrl": "Practitioner/48959fef-e275-41ee-930f-91e20a87d9b3",
                          "resource": {
                            "resourceType": "Practitioner",
                            "id": "48959fef-e275-41ee-930f-91e20a87d9b3",
                            "extension": [
                              {
                                "extension": [
                                  {
                                    "url": "offset",
                                    "valueInteger": -1
                                  },
                                  {
                                    "url": "length",
                                    "valueInteger": 7
                                  }
                                ],
                                "url": "http://hl7.org/fhir/StructureDefinition/derivation-reference"
                              }
                            ],
                            "name": [
                              {
                                "text": "Unknown",
                                "family": "Unknown"
                              }
                            ]
                          }
                        },
                        {
                          "fullUrl": "Patient/d0b72341-a397-4df5-85ce-6cc09cc9f0b6",
                          "resource": {
                            "resourceType": "Patient",
                            "id": "d0b72341-a397-4df5-85ce-6cc09cc9f0b6",
                            "gender": "unknown"
                          }
                        },
                        {
                          "fullUrl": "Encounter/27b4f1f5-9b27-4e97-a382-343442f2bc1c",
                          "resource": {
                            "resourceType": "Encounter",
                            "id": "27b4f1f5-9b27-4e97-a382-343442f2bc1c",
                            "meta": {
                              "profile": [
                                "http://hl7.org/fhir/us/core/StructureDefinition/us-core-encounter"
                              ]
                            },
                            "status": "finished",
                            "class": {
                              "system": "http://terminology.hl7.org/CodeSystem/v3-ActCode",
                              "display": "unknown"
                            },
                            "subject": {
                              "reference": "Patient/d0b72341-a397-4df5-85ce-6cc09cc9f0b6",
                              "type": "Patient"
                            }
                          }
                        },
                        {
                          "fullUrl": "MedicationStatement/12517312-1ab5-4953-b295-c9d2226f5a4a",
                          "resource": {
                            "resourceType": "MedicationStatement",
                            "id": "12517312-1ab5-4953-b295-c9d2226f5a4a",
                            "extension": [
                              {
                                "extension": [
                                  {
                                    "url": "offset",
                                    "valueInteger": 17
                                  },
                                  {
                                    "url": "length",
                                    "valueInteger": 9
                                  }
                                ],
                                "url": "http://hl7.org/fhir/StructureDefinition/derivation-reference"
                              }
                            ],
                            "status": "active",
                            "medicationCodeableConcept": {
                              "coding": [
                                {
                                  "system": "http://www.nlm.nih.gov/research/umls",
                                  "code": "C0020740",
                                  "display": "ibuprofen"
                                },
                                {
                                  "system": "http://www.nlm.nih.gov/research/umls/aod",
                                  "code": "0000019879"
                                },
                                {
                                  "system": "http://www.whocc.no/atc",
                                  "code": "M01AE01"
                                },
                                {
                                  "system": "http://www.nlm.nih.gov/research/umls/ccpss",
                                  "code": "0046165"
                                },
                                {
                                  "system": "http://www.nlm.nih.gov/research/umls/chv",
                                  "code": "0000006519"
                                },
                                {
                                  "system": "http://www.nlm.nih.gov/research/umls/csp",
                                  "code": "2270-2077"
                                },
                                {
                                  "system": "http://www.nlm.nih.gov/research/umls/drugbank",
                                  "code": "DB01050"
                                },
                                {
                                  "system": "http://www.nlm.nih.gov/research/umls/gs",
                                  "code": "1611"
                                },
                                {
                                  "system": "http://www.nlm.nih.gov/research/umls/lch_nw",
                                  "code": "sh97005926"
                                },
                                {
                                  "system": "http://loinc.org",
                                  "code": "LP16165-0"
                                },
                                {
                                  "system": "http://www.nlm.nih.gov/research/umls/medcin",
                                  "code": "40458"
                                },
                                {
                                  "system": "http://www.nlm.nih.gov/research/umls/mmsl",
                                  "code": "d00015"
                                },
                                {
                                  "system": "http://www.nlm.nih.gov/research/umls/msh",
                                  "code": "D007052"
                                },
                                {
                                  "system": "http://www.nlm.nih.gov/research/umls/mthspl",
                                  "code": "WK2XYI10QM"
                                },
                                {
                                  "system": "http://ncimeta.nci.nih.gov",
                                  "code": "C561"
                                },
                                {
                                  "system": "http://www.nlm.nih.gov/research/umls/nci_ctrp",
                                  "code": "C561"
                                },
                                {
                                  "system": "http://www.nlm.nih.gov/research/umls/nci_dcp",
                                  "code": "00803"
                                },
                                {
                                  "system": "http://www.nlm.nih.gov/research/umls/nci_dtp",
                                  "code": "NSC0256857"
                                },
                                {
                                  "system": "http://www.nlm.nih.gov/research/umls/nci_fda",
                                  "code": "WK2XYI10QM"
                                },
                                {
                                  "system": "http://www.nlm.nih.gov/research/umls/nci_nci-gloss",
                                  "code": "CDR0000613511"
                                },
                                {
                                  "system": "http://www.nlm.nih.gov/research/umls/nddf",
                                  "code": "002377"
                                },
                                {
                                  "system": "http://www.nlm.nih.gov/research/umls/pdq",
                                  "code": "CDR0000040475"
                                },
                                {
                                  "system": "http://www.nlm.nih.gov/research/umls/rcd",
                                  "code": "x02MO"
                                },
                                {
                                  "system": "http://www.nlm.nih.gov/research/umls/rxnorm",
                                  "code": "5640"
                                },
                                {
                                  "system": "http://snomed.info/sct",
                                  "code": "E-7772"
                                },
                                {
                                  "system": "http://snomed.info/sct/900000000000207008",
                                  "code": "C-603C0"
                                },
                                {
                                  "system": "http://snomed.info/sct/731000124108",
                                  "code": "387207008"
                                },
                                {
                                  "system": "http://www.nlm.nih.gov/research/umls/usp",
                                  "code": "m39860"
                                },
                                {
                                  "system": "http://www.nlm.nih.gov/research/umls/uspmg",
                                  "code": "MTHU000060"
                                },
                                {
                                  "system": "http://hl7.org/fhir/ndfrt",
                                  "code": "4017840"
                                }
                              ],
                              "text": "ibuprofen"
                            },
                            "subject": {
                              "reference": "Patient/d0b72341-a397-4df5-85ce-6cc09cc9f0b6",
                              "type": "Patient"
                            },
                            "context": {
                              "reference": "Encounter/27b4f1f5-9b27-4e97-a382-343442f2bc1c",
                              "type": "Encounter",
                              "display": "unknown"
                            },
                            "dosage": [
                              {
                                "text": "100mg",
                                "timing": {
                                  "repeat": {
                                    "frequency": 2,
                                    "period": 1,
                                    "periodUnit": "d"
                                  },
                                  "code": {
                                    "text": "twice daily"
                                  }
                                },
                                "doseAndRate": [
                                  {
                                    "doseQuantity": {
                                      "value": 100
                                    }
                                  }
                                ]
                              }
                            ]
                          }
                        },
                        {
                          "fullUrl": "List/c90e2dbe-7a04-4515-a1ba-50b209ae1505",
                          "resource": {
                            "resourceType": "List",
                            "id": "c90e2dbe-7a04-4515-a1ba-50b209ae1505",
                            "status": "current",
                            "mode": "snapshot",
                            "title": "General",
                            "subject": {
                              "reference": "Patient/d0b72341-a397-4df5-85ce-6cc09cc9f0b6",
                              "type": "Patient"
                            },
                            "encounter": {
                              "reference": "Encounter/27b4f1f5-9b27-4e97-a382-343442f2bc1c",
                              "type": "Encounter",
                              "display": "unknown"
                            },
                            "entry": [
                              {
                                "item": {
                                  "reference": "MedicationStatement/12517312-1ab5-4953-b295-c9d2226f5a4a",
                                  "type": "MedicationStatement",
                                  "display": "ibuprofen"
                                }
                              }
                            ]
                          }
                        }
                      ]
                    }
                  },
                  {
                    "id": "2",
                    "entities": [
                      {
                        "offset": 0,
                        "length": 4,
                        "text": "Baby",
                        "category": "Age",
                        "confidenceScore": 0.94,
                        "name": "Infant",
                        "links": [
                          {
                            "dataSource": "UMLS",
                            "id": "C0021270"
                          },
                          {
                            "dataSource": "AOD",
                            "id": "0000005273"
                          },
                          {
                            "dataSource": "CCPSS",
                            "id": "0030805"
                          },
                          {
                            "dataSource": "CHV",
                            "id": "0000006675"
                          },
                          {
                            "dataSource": "DXP",
                            "id": "U002089"
                          },
                          {
                            "dataSource": "LCH",
                            "id": "U002421"
                          },
                          {
                            "dataSource": "LCH_NW",
                            "id": "sh85066022"
                          },
                          {
                            "dataSource": "LNC",
                            "id": "LA19747-7"
                          },
                          {
                            "dataSource": "MDR",
                            "id": "10021731"
                          },
                          {
                            "dataSource": "MSH",
                            "id": "D007223"
                          },
                          {
                            "dataSource": "NCI",
                            "id": "C27956"
                          },
                          {
                            "dataSource": "NCI_FDA",
                            "id": "C27956"
                          },
                          {
                            "dataSource": "NCI_NICHD",
                            "id": "C27956"
                          },
                          {
                            "dataSource": "SNOMEDCT_US",
                            "id": "133931009"
                          }
                        ]
                      },
                      {
                        "offset": 24,
                        "length": 10,
                        "text": "Meningitis",
                        "category": "Diagnosis",
                        "confidenceScore": 1.0,
                        "assertion": {
                          "certainty": "negativePossible"
                        },
                        "name": "Meningitis",
                        "links": [
                          {
                            "dataSource": "UMLS",
                            "id": "C0025289"
                          },
                          {
                            "dataSource": "AOD",
                            "id": "0000006185"
                          },
                          {
                            "dataSource": "BI",
                            "id": "BI00546"
                          },
                          {
                            "dataSource": "CCPSS",
                            "id": "1018016"
                          },
                          {
                            "dataSource": "CCSR_10",
                            "id": "NVS001"
                          },
                          {
                            "dataSource": "CCSR_ICD10CM",
                            "id": "NVS001"
                          },
                          {
                            "dataSource": "CHV",
                            "id": "0000007932"
                          },
                          {
                            "dataSource": "COSTAR",
                            "id": "478"
                          },
                          {
                            "dataSource": "CSP",
                            "id": "2042-5301"
                          },
                          {
                            "dataSource": "CST",
                            "id": "MENINGITIS"
                          },
                          {
                            "dataSource": "DXP",
                            "id": "U002543"
                          },
                          {
                            "dataSource": "HPO",
                            "id": "HP:0001287"
                          },
                          {
                            "dataSource": "ICD10",
                            "id": "G03.9"
                          },
                          {
                            "dataSource": "ICD10AM",
                            "id": "G03.9"
                          },
                          {
                            "dataSource": "ICD10CM",
                            "id": "G03.9"
                          },
                          {
                            "dataSource": "ICD9CM",
                            "id": "322.9"
                          },
                          {
                            "dataSource": "ICPC2ICD10ENG",
                            "id": "MTHU048434"
                          },
                          {
                            "dataSource": "ICPC2P",
                            "id": "N71002"
                          },
                          {
                            "dataSource": "LCH",
                            "id": "U002901"
                          },
                          {
                            "dataSource": "LCH_NW",
                            "id": "sh85083562"
                          },
                          {
                            "dataSource": "LNC",
                            "id": "LP20756-0"
                          },
                          {
                            "dataSource": "MDR",
                            "id": "10027199"
                          },
                          {
                            "dataSource": "MEDCIN",
                            "id": "31192"
                          },
                          {
                            "dataSource": "MEDLINEPLUS",
                            "id": "324"
                          },
                          {
                            "dataSource": "MSH",
                            "id": "D008581"
                          },
                          {
                            "dataSource": "NANDA-I",
                            "id": "02899"
                          },
                          {
                            "dataSource": "NCI",
                            "id": "C26828"
                          },
                          {
                            "dataSource": "NCI_CPTAC",
                            "id": "C26828"
                          },
                          {
                            "dataSource": "NCI_CTCAE",
                            "id": "E11458"
                          },
                          {
                            "dataSource": "NCI_FDA",
                            "id": "2389"
                          },
                          {
                            "dataSource": "NCI_NCI-GLOSS",
                            "id": "CDR0000471780"
                          },
                          {
                            "dataSource": "NCI_NICHD",
                            "id": "C26828"
                          },
                          {
                            "dataSource": "NCI_caDSR",
                            "id": "C26828"
                          },
                          {
                            "dataSource": "OMIM",
                            "id": "MTHU005994"
                          },
                          {
                            "dataSource": "PSY",
                            "id": "30660"
                          },
                          {
                            "dataSource": "RCD",
                            "id": "X000H"
                          },
                          {
                            "dataSource": "SNM",
                            "id": "M-40000"
                          },
                          {
                            "dataSource": "SNMI",
                            "id": "DA-10010"
                          },
                          {
                            "dataSource": "SNOMEDCT_US",
                            "id": "7180009"
                          },
                          {
                            "dataSource": "WHO",
                            "id": "0955"
                          }
                        ]
                      },
                      {
                        "offset": 47,
                        "length": 5,
                        "text": "fever",
                        "category": "SymptomOrSign",
                        "confidenceScore": 0.98,
                        "name": "Fever",
                        "links": [
                          {
                            "dataSource": "UMLS",
                            "id": "C0015967"
                          },
                          {
                            "dataSource": "AIR",
                            "id": "FEVER"
                          },
                          {
                            "dataSource": "AOD",
                            "id": "0000004396"
                          },
                          {
                            "dataSource": "BI",
                            "id": "BI00751"
                          },
                          {
                            "dataSource": "CCC",
                            "id": "K25.2"
                          },
                          {
                            "dataSource": "CCPSS",
                            "id": "1017166"
                          },
                          {
                            "dataSource": "CCSR_10",
                            "id": "SYM002"
                          },
                          {
                            "dataSource": "CCSR_ICD10CM",
                            "id": "SYM002"
                          },
                          {
                            "dataSource": "CHV",
                            "id": "0000005010"
                          },
                          {
                            "dataSource": "COSTAR",
                            "id": "300"
                          },
                          {
                            "dataSource": "CPM",
                            "id": "65287"
                          },
                          {
                            "dataSource": "CSP",
                            "id": "2871-4310"
                          },
                          {
                            "dataSource": "CST",
                            "id": "FEVER"
                          },
                          {
                            "dataSource": "DXP",
                            "id": "U001483"
                          },
                          {
                            "dataSource": "GO",
                            "id": "GO:0001660"
                          },
                          {
                            "dataSource": "HPO",
                            "id": "HP:0001945"
                          },
                          {
                            "dataSource": "ICD10",
                            "id": "R50.9"
                          },
                          {
                            "dataSource": "ICD10AM",
                            "id": "R50.9"
                          },
                          {
                            "dataSource": "ICD10CM",
                            "id": "R50.9"
                          },
                          {
                            "dataSource": "ICD9CM",
                            "id": "780.60"
                          },
                          {
                            "dataSource": "ICNP",
                            "id": "10041539"
                          },
                          {
                            "dataSource": "ICPC",
                            "id": "A03"
                          },
                          {
                            "dataSource": "ICPC2EENG",
                            "id": "A03"
                          },
                          {
                            "dataSource": "ICPC2ICD10ENG",
                            "id": "MTHU041751"
                          },
                          {
                            "dataSource": "ICPC2P",
                            "id": "A03002"
                          },
                          {
                            "dataSource": "LCH",
                            "id": "U001776"
                          },
                          {
                            "dataSource": "LCH_NW",
                            "id": "sh85047994"
                          },
                          {
                            "dataSource": "LNC",
                            "id": "MTHU013518"
                          },
                          {
                            "dataSource": "MDR",
                            "id": "10005911"
                          },
                          {
                            "dataSource": "MEDCIN",
                            "id": "6005"
                          },
                          {
                            "dataSource": "MEDLINEPLUS",
                            "id": "511"
                          },
                          {
                            "dataSource": "MSH",
                            "id": "D005334"
                          },
                          {
                            "dataSource": "MTHICD9",
                            "id": "780.60"
                          },
                          {
                            "dataSource": "NANDA-I",
                            "id": "01128"
                          },
                          {
                            "dataSource": "NCI",
                            "id": "C3038"
                          },
                          {
                            "dataSource": "NCI_CTCAE",
                            "id": "E11102"
                          },
                          {
                            "dataSource": "NCI_FDA",
                            "id": "1858"
                          },
                          {
                            "dataSource": "NCI_GDC",
                            "id": "C3038"
                          },
                          {
                            "dataSource": "NCI_NCI-GLOSS",
                            "id": "CDR0000450108"
                          },
                          {
                            "dataSource": "NCI_NICHD",
                            "id": "C3038"
                          },
                          {
                            "dataSource": "NCI_caDSR",
                            "id": "C3038"
                          },
                          {
                            "dataSource": "NOC",
                            "id": "070307"
                          },
                          {
                            "dataSource": "OMIM",
                            "id": "MTHU005439"
                          },
                          {
                            "dataSource": "OMS",
                            "id": "50.03"
                          },
                          {
                            "dataSource": "PCDS",
                            "id": "PRB_11020.02"
                          },
                          {
                            "dataSource": "PDQ",
                            "id": "CDR0000775882"
                          },
                          {
                            "dataSource": "PSY",
                            "id": "23840"
                          },
                          {
                            "dataSource": "QMR",
                            "id": "Q0200115"
                          },
                          {
                            "dataSource": "RCD",
                            "id": "X76EI"
                          },
                          {
                            "dataSource": "SNM",
                            "id": "F-03003"
                          },
                          {
                            "dataSource": "SNMI",
                            "id": "F-03003"
                          },
                          {
                            "dataSource": "SNOMEDCT_US",
                            "id": "386661006"
                          },
                          {
                            "dataSource": "WHO",
                            "id": "0725"
                          }
                        ]
                      },
                      {
                        "offset": 60,
                        "length": 6,
                        "text": "mother",
                        "category": "FamilyRelation",
                        "confidenceScore": 0.99,
                        "name": "Mother (person)",
                        "links": [
                          {
                            "dataSource": "UMLS",
                            "id": "C0026591"
                          },
                          {
                            "dataSource": "AOD",
                            "id": "0000027173"
                          },
                          {
                            "dataSource": "CCPSS",
                            "id": "U000286"
                          },
                          {
                            "dataSource": "CHV",
                            "id": "0000008266"
                          },
                          {
                            "dataSource": "CSP",
                            "id": "1124-5492"
                          },
                          {
                            "dataSource": "HL7V3.0",
                            "id": "MTH"
                          },
                          {
                            "dataSource": "LCH",
                            "id": "U003028"
                          },
                          {
                            "dataSource": "LCH_NW",
                            "id": "sh85087526"
                          },
                          {
                            "dataSource": "LNC",
                            "id": "LA10417-6"
                          },
                          {
                            "dataSource": "MSH",
                            "id": "D009035"
                          },
                          {
                            "dataSource": "NCI",
                            "id": "C25189"
                          },
                          {
                            "dataSource": "NCI_CDISC",
                            "id": "C25189"
                          },
                          {
                            "dataSource": "NCI_GDC",
                            "id": "C25189"
                          },
                          {
                            "dataSource": "NCI_caDSR",
                            "id": "C25189"
                          },
                          {
                            "dataSource": "PSY",
                            "id": "32140"
                          },
                          {
                            "dataSource": "RCD",
                            "id": "X78ym"
                          },
                          {
                            "dataSource": "SNMI",
                            "id": "S-10120"
                          },
                          {
                            "dataSource": "SNOMEDCT_US",
                            "id": "72705000"
                          }
                        ]
                      },
                      {
                        "offset": 77,
                        "length": 10,
                        "text": "Penicillin",
                        "category": "MedicationName",
                        "confidenceScore": 0.84,
                        "assertion": {
                          "certainty": "neutralPossible"
                        },
                        "name": "penicillins",
                        "links": [
                          {
                            "dataSource": "UMLS",
                            "id": "C0030842"
                          },
                          {
                            "dataSource": "AOD",
                            "id": "0000019206"
                          },
                          {
                            "dataSource": "ATC",
                            "id": "J01C"
                          },
                          {
                            "dataSource": "CCPSS",
                            "id": "0014106"
                          },
                          {
                            "dataSource": "CHV",
                            "id": "0000009423"
                          },
                          {
                            "dataSource": "CSP",
                            "id": "0199-8025"
                          },
                          {
                            "dataSource": "GS",
                            "id": "4011"
                          },
                          {
                            "dataSource": "LCH",
                            "id": "U003521"
                          },
                          {
                            "dataSource": "LCH_NW",
                            "id": "sh85099402"
                          },
                          {
                            "dataSource": "LNC",
                            "id": "LP14319-5"
                          },
                          {
                            "dataSource": "MEDCIN",
                            "id": "40319"
                          },
                          {
                            "dataSource": "MMSL",
                            "id": "d00116"
                          },
                          {
                            "dataSource": "MSH",
                            "id": "D010406"
                          },
                          {
                            "dataSource": "NCI",
                            "id": "C1500"
                          },
                          {
                            "dataSource": "NCI_DTP",
                            "id": "NSC0402815"
                          },
                          {
                            "dataSource": "NCI_NCI-GLOSS",
                            "id": "CDR0000045296"
                          },
                          {
                            "dataSource": "NDDF",
                            "id": "016121"
                          },
                          {
                            "dataSource": "PSY",
                            "id": "37190"
                          },
                          {
                            "dataSource": "RCD",
                            "id": "x009C"
                          },
                          {
                            "dataSource": "SNM",
                            "id": "E-7260"
                          },
                          {
                            "dataSource": "SNMI",
                            "id": "C-54000"
                          },
                          {
                            "dataSource": "SNOMEDCT_US",
                            "id": "764146007"
                          },
                          {
                            "dataSource": "VANDF",
                            "id": "4019880"
                          }
                        ]
                      },
                      {
                        "offset": 96,
                        "length": 4,
                        "text": "baby",
                        "category": "FamilyRelation",
                        "confidenceScore": 1.0,
                        "name": "Infant",
                        "links": [
                          {
                            "dataSource": "UMLS",
                            "id": "C0021270"
                          },
                          {
                            "dataSource": "AOD",
                            "id": "0000005273"
                          },
                          {
                            "dataSource": "CCPSS",
                            "id": "0030805"
                          },
                          {
                            "dataSource": "CHV",
                            "id": "0000006675"
                          },
                          {
                            "dataSource": "DXP",
                            "id": "U002089"
                          },
                          {
                            "dataSource": "LCH",
                            "id": "U002421"
                          },
                          {
                            "dataSource": "LCH_NW",
                            "id": "sh85066022"
                          },
                          {
                            "dataSource": "LNC",
                            "id": "LA19747-7"
                          },
                          {
                            "dataSource": "MDR",
                            "id": "10021731"
                          },
                          {
                            "dataSource": "MSH",
                            "id": "D007223"
                          },
                          {
                            "dataSource": "NCI",
                            "id": "C27956"
                          },
                          {
                            "dataSource": "NCI_FDA",
                            "id": "C27956"
                          },
                          {
                            "dataSource": "NCI_NICHD",
                            "id": "C27956"
                          },
                          {
                            "dataSource": "SNOMEDCT_US",
                            "id": "133931009"
                          }
                        ]
                      }
                    ],
                    "relations": [],
                    "warnings": [],
                    "fhirBundle": {
                      "resourceType": "Bundle",
                      "id": "3d9fd6ac-3c02-42b7-9487-ee9890471abb",
                      "meta": {
                        "profile": [
                          "http://hl7.org/fhir/4.0.1/StructureDefinition/Bundle"
                        ]
                      },
                      "identifier": {
                        "system": "urn:ietf:rfc:3986",
                        "value": "urn:uuid:3d9fd6ac-3c02-42b7-9487-ee9890471abb"
                      },
                      "type": "document",
                      "entry": [
                        {
                          "fullUrl": "Composition/668f37f5-c798-4c09-af4f-d4a21a7f0241",
                          "resource": {
                            "resourceType": "Composition",
                            "id": "668f37f5-c798-4c09-af4f-d4a21a7f0241",
                            "status": "final",
                            "type": {
                              "coding": [
                                {
                                  "system": "http://loinc.org",
                                  "code": "11526-1",
                                  "display": "Pathology study"
                                }
                              ],
                              "text": "Pathology study"
                            },
                            "subject": {
                              "reference": "Patient/36ff1b88-4846-4211-bfff-a51e232e12f6",
                              "type": "Patient"
                            },
                            "encounter": {
                              "reference": "Encounter/1bf06e10-330f-455c-a60a-f4c0dde3d70c",
                              "type": "Encounter",
                              "display": "unknown"
                            },
                            "date": "2022-05-06",
                            "author": [
                              {
                                "reference": "Practitioner/1352a91f-3010-49b1-ae3b-1a34e8e4a5b4",
                                "type": "Practitioner",
                                "display": "Unknown"
                              }
                            ],
                            "title": "Pathology study",
                            "section": [
                              {
                                "title": "General",
                                "code": {
                                  "coding": [
                                    {
                                      "system": "",
                                      "display": "Unrecognized Section"
                                    }
                                  ],
                                  "text": "General"
                                },
                                "text": {
                                  "div": "\u003Cdiv\u003E\r\n\t\t\t\t\t\t\t\u003Ch1\u003EGeneral\u003C/h1\u003E\r\n\t\t\t\t\t\t\t\u003Cp\u003EBaby not likely to have Meningitis. in case of fever in the mother, consider Penicillin for the baby too.\u003C/p\u003E\r\n\t\t\t\t\t\u003C/div\u003E"
                                },
                                "entry": [
                                  {
                                    "reference": "List/4ab98bbd-d970-4eba-bc97-ea882ef0a49b",
                                    "type": "List",
                                    "display": "General"
                                  }
                                ]
                              }
                            ]
                          }
                        },
                        {
                          "fullUrl": "Practitioner/1352a91f-3010-49b1-ae3b-1a34e8e4a5b4",
                          "resource": {
                            "resourceType": "Practitioner",
                            "id": "1352a91f-3010-49b1-ae3b-1a34e8e4a5b4",
                            "extension": [
                              {
                                "extension": [
                                  {
                                    "url": "offset",
                                    "valueInteger": -1
                                  },
                                  {
                                    "url": "length",
                                    "valueInteger": 7
                                  }
                                ],
                                "url": "http://hl7.org/fhir/StructureDefinition/derivation-reference"
                              }
                            ],
                            "name": [
                              {
                                "text": "Unknown",
                                "family": "Unknown"
                              }
                            ]
                          }
                        },
                        {
                          "fullUrl": "Patient/36ff1b88-4846-4211-bfff-a51e232e12f6",
                          "resource": {
                            "resourceType": "Patient",
                            "id": "36ff1b88-4846-4211-bfff-a51e232e12f6",
                            "gender": "unknown"
                          }
                        },
                        {
                          "fullUrl": "Encounter/1bf06e10-330f-455c-a60a-f4c0dde3d70c",
                          "resource": {
                            "resourceType": "Encounter",
                            "id": "1bf06e10-330f-455c-a60a-f4c0dde3d70c",
                            "meta": {
                              "profile": [
                                "http://hl7.org/fhir/us/core/StructureDefinition/us-core-encounter"
                              ]
                            },
                            "status": "finished",
                            "class": {
                              "system": "http://terminology.hl7.org/CodeSystem/v3-ActCode",
                              "display": "unknown"
                            },
                            "subject": {
                              "reference": "Patient/36ff1b88-4846-4211-bfff-a51e232e12f6",
                              "type": "Patient"
                            }
                          }
                        },
                        {
                          "fullUrl": "Condition/c387a9b2-1095-48e1-9478-de662d3151d0",
                          "resource": {
                            "resourceType": "Condition",
                            "id": "c387a9b2-1095-48e1-9478-de662d3151d0",
                            "meta": {
                              "profile": [
                                "http://hl7.org/fhir/us/core/StructureDefinition/us-core-condition"
                              ]
                            },
                            "extension": [
                              {
                                "extension": [
                                  {
                                    "url": "offset",
                                    "valueInteger": 24
                                  },
                                  {
                                    "url": "length",
                                    "valueInteger": 10
                                  }
                                ],
                                "url": "http://hl7.org/fhir/StructureDefinition/derivation-reference"
                              }
                            ],
                            "verificationStatus": {
                              "coding": [
                                {
                                  "system": "http://terminology.hl7.org/CodeSystem/condition-ver-status",
                                  "code": "confirmed",
                                  "display": "Confirmed"
                                }
                              ],
                              "text": "Confirmed"
                            },
                            "category": [
                              {
                                "coding": [
                                  {
                                    "system": "http://terminology.hl7.org/CodeSystem/condition-category",
                                    "code": "encounter-diagnosis",
                                    "display": "Encounter Diagnosis"
                                  }
                                ],
                                "text": "Encounter Diagnosis"
                              }
                            ],
                            "code": {
                              "coding": [
                                {
                                  "system": "http://www.nlm.nih.gov/research/umls",
                                  "code": "C0025289",
                                  "display": "Meningitis"
                                },
                                {
                                  "system": "http://www.nlm.nih.gov/research/umls/aod",
                                  "code": "0000006185"
                                },
                                {
                                  "system": "http://www.nlm.nih.gov/research/umls/bi",
                                  "code": "BI00546"
                                },
                                {
                                  "system": "http://www.nlm.nih.gov/research/umls/ccpss",
                                  "code": "1018016"
                                },
                                {
                                  "system": "http://www.nlm.nih.gov/research/umls/ccsr_10",
                                  "code": "NVS001"
                                },
                                {
                                  "system": "http://www.nlm.nih.gov/research/umls/ccsr_icd10cm",
                                  "code": "NVS001"
                                },
                                {
                                  "system": "http://www.nlm.nih.gov/research/umls/chv",
                                  "code": "0000007932"
                                },
                                {
                                  "system": "http://www.nlm.nih.gov/research/umls/costar",
                                  "code": "478"
                                },
                                {
                                  "system": "http://www.nlm.nih.gov/research/umls/csp",
                                  "code": "2042-5301"
                                },
                                {
                                  "system": "http://www.nlm.nih.gov/research/umls/cst",
                                  "code": "MENINGITIS"
                                },
                                {
                                  "system": "http://www.nlm.nih.gov/research/umls/dxp",
                                  "code": "U002543"
                                },
                                {
                                  "system": "http://www.nlm.nih.gov/research/umls/hpo",
                                  "code": "HP:0001287"
                                },
                                {
                                  "system": "http://hl7.org/fhir/sid/icd-10",
                                  "code": "G03.9"
                                },
                                {
                                  "system": "http://hl7.org/fhir/sid/icd-10-am",
                                  "code": "G03.9"
                                },
                                {
                                  "system": "http://hl7.org/fhir/sid/icd-10-cm",
                                  "code": "G03.9"
                                },
                                {
                                  "system": "http://hl7.org/fhir/sid/icd-9-cm",
                                  "code": "322.9"
                                },
                                {
                                  "system": "http://hl7.org/fhir/sid/icpc2icd10eng",
                                  "code": "MTHU048434"
                                },
                                {
                                  "system": "http://hl7.org/fhir/sid/icpc-2p",
                                  "code": "N71002"
                                },
                                {
                                  "system": "http://www.nlm.nih.gov/research/umls/lch",
                                  "code": "U002901"
                                },
                                {
                                  "system": "http://www.nlm.nih.gov/research/umls/lch_nw",
                                  "code": "sh85083562"
                                },
                                {
                                  "system": "http://loinc.org",
                                  "code": "LP20756-0"
                                },
                                {
                                  "system": "http://www.nlm.nih.gov/research/umls/mdr",
                                  "code": "10027199"
                                },
                                {
                                  "system": "http://www.nlm.nih.gov/research/umls/medcin",
                                  "code": "31192"
                                },
                                {
                                  "system": "http://www.nlm.nih.gov/research/umls/medlineplus",
                                  "code": "324"
                                },
                                {
                                  "system": "http://www.nlm.nih.gov/research/umls/msh",
                                  "code": "D008581"
                                },
                                {
                                  "system": "http://www.nlm.nih.gov/research/umls/nanda-i",
                                  "code": "02899"
                                },
                                {
                                  "system": "http://ncimeta.nci.nih.gov",
                                  "code": "C26828"
                                },
                                {
                                  "system": "http://www.nlm.nih.gov/research/umls/nci_cptac",
                                  "code": "C26828"
                                },
                                {
                                  "system": "http://www.nlm.nih.gov/research/umls/nci_ctcae",
                                  "code": "E11458"
                                },
                                {
                                  "system": "http://www.nlm.nih.gov/research/umls/nci_fda",
                                  "code": "2389"
                                },
                                {
                                  "system": "http://www.nlm.nih.gov/research/umls/nci_nci-gloss",
                                  "code": "CDR0000471780"
                                },
                                {
                                  "system": "http://www.nlm.nih.gov/research/umls/nci_nichd",
                                  "code": "C26828"
                                },
                                {
                                  "system": "http://www.nlm.nih.gov/research/umls/nci_cadsr",
                                  "code": "C26828"
                                },
                                {
                                  "system": "http://www.nlm.nih.gov/research/umls/omim",
                                  "code": "MTHU005994"
                                },
                                {
                                  "system": "http://www.nlm.nih.gov/research/umls/psy",
                                  "code": "30660"
                                },
                                {
                                  "system": "http://www.nlm.nih.gov/research/umls/rcd",
                                  "code": "X000H"
                                },
                                {
                                  "system": "http://snomed.info/sct",
                                  "code": "M-40000"
                                },
                                {
                                  "system": "http://snomed.info/sct/900000000000207008",
                                  "code": "DA-10010"
                                },
                                {
                                  "system": "http://snomed.info/sct/731000124108",
                                  "code": "7180009"
                                },
                                {
                                  "system": "http://www.nlm.nih.gov/research/umls/who",
                                  "code": "0955"
                                }
                              ],
                              "text": "Meningitis"
                            },
                            "subject": {
                              "reference": "Patient/36ff1b88-4846-4211-bfff-a51e232e12f6",
                              "type": "Patient"
                            },
                            "encounter": {
                              "reference": "Encounter/1bf06e10-330f-455c-a60a-f4c0dde3d70c",
                              "type": "Encounter",
                              "display": "unknown"
                            }
                          }
                        },
                        {
                          "fullUrl": "Observation/91be6385-a16e-429c-8c21-18fc725e7899",
                          "resource": {
                            "resourceType": "Observation",
                            "id": "91be6385-a16e-429c-8c21-18fc725e7899",
                            "extension": [
                              {
                                "extension": [
                                  {
                                    "url": "offset",
                                    "valueInteger": 47
                                  },
                                  {
                                    "url": "length",
                                    "valueInteger": 5
                                  }
                                ],
                                "url": "http://hl7.org/fhir/StructureDefinition/derivation-reference"
                              }
                            ],
                            "status": "final",
                            "category": [
                              {
                                "coding": [
                                  {
                                    "system": "http://terminology.hl7.org/CodeSystem/observation-category",
                                    "code": "exam",
                                    "display": "Exam"
                                  }
                                ],
                                "text": "Exam"
                              }
                            ],
                            "code": {
                              "coding": [
                                {
                                  "system": "http://www.nlm.nih.gov/research/umls",
                                  "code": "C0015967",
                                  "display": "fever"
                                },
                                {
                                  "system": "http://www.nlm.nih.gov/research/umls/air",
                                  "code": "FEVER"
                                },
                                {
                                  "system": "http://www.nlm.nih.gov/research/umls/aod",
                                  "code": "0000004396"
                                },
                                {
                                  "system": "http://www.nlm.nih.gov/research/umls/bi",
                                  "code": "BI00751"
                                },
                                {
                                  "system": "http://www.nlm.nih.gov/research/umls/ccc",
                                  "code": "K25.2"
                                },
                                {
                                  "system": "http://www.nlm.nih.gov/research/umls/ccpss",
                                  "code": "1017166"
                                },
                                {
                                  "system": "http://www.nlm.nih.gov/research/umls/ccsr_10",
                                  "code": "SYM002"
                                },
                                {
                                  "system": "http://www.nlm.nih.gov/research/umls/ccsr_icd10cm",
                                  "code": "SYM002"
                                },
                                {
                                  "system": "http://www.nlm.nih.gov/research/umls/chv",
                                  "code": "0000005010"
                                },
                                {
                                  "system": "http://www.nlm.nih.gov/research/umls/costar",
                                  "code": "300"
                                },
                                {
                                  "system": "http://www.nlm.nih.gov/research/umls/cpm",
                                  "code": "65287"
                                },
                                {
                                  "system": "http://www.nlm.nih.gov/research/umls/csp",
                                  "code": "2871-4310"
                                },
                                {
                                  "system": "http://www.nlm.nih.gov/research/umls/cst",
                                  "code": "FEVER"
                                },
                                {
                                  "system": "http://www.nlm.nih.gov/research/umls/dxp",
                                  "code": "U001483"
                                },
                                {
                                  "system": "http://www.nlm.nih.gov/research/umls/go",
                                  "code": "GO:0001660"
                                },
                                {
                                  "system": "http://www.nlm.nih.gov/research/umls/hpo",
                                  "code": "HP:0001945"
                                },
                                {
                                  "system": "http://hl7.org/fhir/sid/icd-10",
                                  "code": "R50.9"
                                },
                                {
                                  "system": "http://hl7.org/fhir/sid/icd-10-am",
                                  "code": "R50.9"
                                },
                                {
                                  "system": "http://hl7.org/fhir/sid/icd-10-cm",
                                  "code": "R50.9"
                                },
                                {
                                  "system": "http://hl7.org/fhir/sid/icd-9-cm",
                                  "code": "780.60"
                                },
                                {
                                  "system": "http://www.nlm.nih.gov/research/umls/icnp",
                                  "code": "10041539"
                                },
                                {
                                  "system": "http://www.nlm.nih.gov/research/umls/icpc",
                                  "code": "A03"
                                },
                                {
                                  "system": "http://www.nlm.nih.gov/research/umls/icpc2eeng",
                                  "code": "A03"
                                },
                                {
                                  "system": "http://hl7.org/fhir/sid/icpc2icd10eng",
                                  "code": "MTHU041751"
                                },
                                {
                                  "system": "http://hl7.org/fhir/sid/icpc-2p",
                                  "code": "A03002"
                                },
                                {
                                  "system": "http://www.nlm.nih.gov/research/umls/lch",
                                  "code": "U001776"
                                },
                                {
                                  "system": "http://www.nlm.nih.gov/research/umls/lch_nw",
                                  "code": "sh85047994"
                                },
                                {
                                  "system": "http://loinc.org",
                                  "code": "MTHU013518"
                                },
                                {
                                  "system": "http://www.nlm.nih.gov/research/umls/mdr",
                                  "code": "10005911"
                                },
                                {
                                  "system": "http://www.nlm.nih.gov/research/umls/medcin",
                                  "code": "6005"
                                },
                                {
                                  "system": "http://www.nlm.nih.gov/research/umls/medlineplus",
                                  "code": "511"
                                },
                                {
                                  "system": "http://www.nlm.nih.gov/research/umls/msh",
                                  "code": "D005334"
                                },
                                {
                                  "system": "http://www.nlm.nih.gov/research/umls/mthicd9",
                                  "code": "780.60"
                                },
                                {
                                  "system": "http://www.nlm.nih.gov/research/umls/nanda-i",
                                  "code": "01128"
                                },
                                {
                                  "system": "http://ncimeta.nci.nih.gov",
                                  "code": "C3038"
                                },
                                {
                                  "system": "http://www.nlm.nih.gov/research/umls/nci_ctcae",
                                  "code": "E11102"
                                },
                                {
                                  "system": "http://www.nlm.nih.gov/research/umls/nci_fda",
                                  "code": "1858"
                                },
                                {
                                  "system": "http://www.nlm.nih.gov/research/umls/nci_gdc",
                                  "code": "C3038"
                                },
                                {
                                  "system": "http://www.nlm.nih.gov/research/umls/nci_nci-gloss",
                                  "code": "CDR0000450108"
                                },
                                {
                                  "system": "http://www.nlm.nih.gov/research/umls/nci_nichd",
                                  "code": "C3038"
                                },
                                {
                                  "system": "http://www.nlm.nih.gov/research/umls/nci_cadsr",
                                  "code": "C3038"
                                },
                                {
                                  "system": "http://www.nlm.nih.gov/research/umls/noc",
                                  "code": "070307"
                                },
                                {
                                  "system": "http://www.nlm.nih.gov/research/umls/omim",
                                  "code": "MTHU005439"
                                },
                                {
                                  "system": "http://www.nlm.nih.gov/research/umls/oms",
                                  "code": "50.03"
                                },
                                {
                                  "system": "http://www.nlm.nih.gov/research/umls/pcds",
                                  "code": "PRB_11020.02"
                                },
                                {
                                  "system": "http://www.nlm.nih.gov/research/umls/pdq",
                                  "code": "CDR0000775882"
                                },
                                {
                                  "system": "http://www.nlm.nih.gov/research/umls/psy",
                                  "code": "23840"
                                },
                                {
                                  "system": "http://www.nlm.nih.gov/research/umls/qmr",
                                  "code": "Q0200115"
                                },
                                {
                                  "system": "http://www.nlm.nih.gov/research/umls/rcd",
                                  "code": "X76EI"
                                },
                                {
                                  "system": "http://snomed.info/sct",
                                  "code": "F-03003"
                                },
                                {
                                  "system": "http://snomed.info/sct/900000000000207008",
                                  "code": "F-03003"
                                },
                                {
                                  "system": "http://snomed.info/sct/731000124108",
                                  "code": "386661006"
                                },
                                {
                                  "system": "http://www.nlm.nih.gov/research/umls/who",
                                  "code": "0725"
                                }
                              ],
                              "text": "fever"
                            },
                            "subject": {
                              "reference": "Patient/36ff1b88-4846-4211-bfff-a51e232e12f6",
                              "type": "Patient"
                            },
                            "encounter": {
                              "reference": "Encounter/1bf06e10-330f-455c-a60a-f4c0dde3d70c",
                              "type": "Encounter",
                              "display": "unknown"
                            },
                            "interpretation": [
                              {
                                "coding": [
                                  {
                                    "system": "http://terminology.hl7.org/CodeSystem/v3-ObservationInterpretation",
                                    "code": "POS",
                                    "display": "Positive"
                                  }
                                ],
                                "text": "Positive"
                              }
                            ]
                          }
                        },
                        {
                          "fullUrl": "MedicationStatement/655e22c1-e46f-4ea5-afa1-cf891b8fd907",
                          "resource": {
                            "resourceType": "MedicationStatement",
                            "id": "655e22c1-e46f-4ea5-afa1-cf891b8fd907",
                            "extension": [
                              {
                                "extension": [
                                  {
                                    "url": "offset",
                                    "valueInteger": 77
                                  },
                                  {
                                    "url": "length",
                                    "valueInteger": 10
                                  }
                                ],
                                "url": "http://hl7.org/fhir/StructureDefinition/derivation-reference"
                              }
                            ],
                            "status": "active",
                            "medicationCodeableConcept": {
                              "coding": [
                                {
                                  "system": "http://www.nlm.nih.gov/research/umls",
                                  "code": "C0030842",
                                  "display": "Penicillin"
                                },
                                {
                                  "system": "http://www.nlm.nih.gov/research/umls/aod",
                                  "code": "0000019206"
                                },
                                {
                                  "system": "http://www.whocc.no/atc",
                                  "code": "J01C"
                                },
                                {
                                  "system": "http://www.nlm.nih.gov/research/umls/ccpss",
                                  "code": "0014106"
                                },
                                {
                                  "system": "http://www.nlm.nih.gov/research/umls/chv",
                                  "code": "0000009423"
                                },
                                {
                                  "system": "http://www.nlm.nih.gov/research/umls/csp",
                                  "code": "0199-8025"
                                },
                                {
                                  "system": "http://www.nlm.nih.gov/research/umls/gs",
                                  "code": "4011"
                                },
                                {
                                  "system": "http://www.nlm.nih.gov/research/umls/lch",
                                  "code": "U003521"
                                },
                                {
                                  "system": "http://www.nlm.nih.gov/research/umls/lch_nw",
                                  "code": "sh85099402"
                                },
                                {
                                  "system": "http://loinc.org",
                                  "code": "LP14319-5"
                                },
                                {
                                  "system": "http://www.nlm.nih.gov/research/umls/medcin",
                                  "code": "40319"
                                },
                                {
                                  "system": "http://www.nlm.nih.gov/research/umls/mmsl",
                                  "code": "d00116"
                                },
                                {
                                  "system": "http://www.nlm.nih.gov/research/umls/msh",
                                  "code": "D010406"
                                },
                                {
                                  "system": "http://ncimeta.nci.nih.gov",
                                  "code": "C1500"
                                },
                                {
                                  "system": "http://www.nlm.nih.gov/research/umls/nci_dtp",
                                  "code": "NSC0402815"
                                },
                                {
                                  "system": "http://www.nlm.nih.gov/research/umls/nci_nci-gloss",
                                  "code": "CDR0000045296"
                                },
                                {
                                  "system": "http://www.nlm.nih.gov/research/umls/nddf",
                                  "code": "016121"
                                },
                                {
                                  "system": "http://www.nlm.nih.gov/research/umls/psy",
                                  "code": "37190"
                                },
                                {
                                  "system": "http://www.nlm.nih.gov/research/umls/rcd",
                                  "code": "x009C"
                                },
                                {
                                  "system": "http://snomed.info/sct",
                                  "code": "E-7260"
                                },
                                {
                                  "system": "http://snomed.info/sct/900000000000207008",
                                  "code": "C-54000"
                                },
                                {
                                  "system": "http://snomed.info/sct/731000124108",
                                  "code": "764146007"
                                },
                                {
                                  "system": "http://hl7.org/fhir/ndfrt",
                                  "code": "4019880"
                                }
                              ],
                              "text": "Penicillin"
                            },
                            "subject": {
                              "reference": "Patient/36ff1b88-4846-4211-bfff-a51e232e12f6",
                              "type": "Patient"
                            },
                            "context": {
                              "reference": "Encounter/1bf06e10-330f-455c-a60a-f4c0dde3d70c",
                              "type": "Encounter",
                              "display": "unknown"
                            }
                          }
                        },
                        {
                          "fullUrl": "List/4ab98bbd-d970-4eba-bc97-ea882ef0a49b",
                          "resource": {
                            "resourceType": "List",
                            "id": "4ab98bbd-d970-4eba-bc97-ea882ef0a49b",
                            "status": "current",
                            "mode": "snapshot",
                            "title": "General",
                            "subject": {
                              "reference": "Patient/36ff1b88-4846-4211-bfff-a51e232e12f6",
                              "type": "Patient"
                            },
                            "encounter": {
                              "reference": "Encounter/1bf06e10-330f-455c-a60a-f4c0dde3d70c",
                              "type": "Encounter",
                              "display": "unknown"
                            },
                            "entry": [
                              {
                                "item": {
                                  "reference": "Condition/c387a9b2-1095-48e1-9478-de662d3151d0",
                                  "type": "Condition",
                                  "display": "Meningitis"
                                }
                              },
                              {
                                "item": {
                                  "reference": "Observation/91be6385-a16e-429c-8c21-18fc725e7899",
                                  "type": "Observation",
                                  "display": "fever"
                                }
                              },
                              {
                                "item": {
                                  "reference": "MedicationStatement/655e22c1-e46f-4ea5-afa1-cf891b8fd907",
                                  "type": "MedicationStatement",
                                  "display": "Penicillin"
                                }
                              }
                            ]
                          }
                        }
                      ]
                    }
                  }
                ],
                "errors": [],
                "modelVersion": "2022-03-01"
              }
            }
          ]
        }
      }
    },
    {
      "RequestUri": "https://endpoint/language/analyze-text/jobs/20cd2985-6811-4d7a-9087-18f4e7499d9e?api-version=2022-04-01-preview",
      "RequestMethod": "GET",
      "RequestHeaders": {
        "Accept": "application/json",
        "Accept-Encoding": "gzip, deflate, br",
        "Accept-Language": "en-US",
        "Connection": "keep-alive",
        "ocp-apim-subscription-key": "api_key",
        "Referer": "http://localhost:9876/",
        "sec-ch-ua": "",
        "sec-ch-ua-mobile": "?0",
        "sec-ch-ua-platform": "",
        "Sec-Fetch-Dest": "empty",
        "Sec-Fetch-Mode": "cors",
        "Sec-Fetch-Site": "same-site",
        "User-Agent": "Mozilla/5.0 (X11; Linux x86_64) AppleWebKit/537.36 (KHTML, like Gecko) HeadlessChrome/100.0.4889.0 Safari/537.36",
        "x-ms-client-request-id": "7195591f-a15e-462e-8cc0-41382716cc25",
        "x-ms-useragent": "azsdk-js-ai-text-analytics/6.0.0-beta.1 core-rest-pipeline/1.8.1 OS/Linuxx86_64"
      },
      "RequestBody": null,
      "StatusCode": 200,
      "ResponseHeaders": {
        "apim-request-id": "96bddd9b-b608-4830-93bf-5f29c0d09caf",
        "Content-Length": "37747",
        "Content-Type": "application/json; charset=utf-8",
        "Date": "Fri, 06 May 2022 20:06:38 GMT",
        "Strict-Transport-Security": "max-age=31536000; includeSubDomains; preload",
        "X-Content-Type-Options": "nosniff",
        "x-envoy-upstream-service-time": "61"
      },
      "ResponseBody": {
        "jobId": "20cd2985-6811-4d7a-9087-18f4e7499d9e",
        "lastUpdateDateTime": "2022-05-06T20:06:37Z",
        "createdDateTime": "2022-05-06T20:06:36Z",
        "expirationDateTime": "2022-05-07T20:06:36Z",
        "status": "succeeded",
        "errors": [],
        "tasks": {
          "completed": 1,
          "failed": 0,
          "inProgress": 0,
          "total": 1,
          "items": [
            {
              "kind": "HealthcareLROResults",
              "lastUpdateDateTime": "2022-05-06T20:06:37.9920781Z",
              "status": "succeeded",
              "results": {
                "documents": [
                  {
                    "id": "0",
                    "entities": [
                      {
                        "offset": 29,
                        "length": 19,
                        "text": "high blood pressure",
                        "category": "SymptomOrSign",
                        "confidenceScore": 1.0,
                        "assertion": {
                          "certainty": "negative"
                        },
                        "name": "Hypertensive disease",
                        "links": [
                          {
                            "dataSource": "UMLS",
                            "id": "C0020538"
                          },
                          {
                            "dataSource": "AOD",
                            "id": "0000023317"
                          },
                          {
                            "dataSource": "BI",
                            "id": "BI00001"
                          },
                          {
                            "dataSource": "CCPSS",
                            "id": "1017493"
                          },
                          {
                            "dataSource": "CCS",
                            "id": "7.1"
                          },
                          {
                            "dataSource": "CHV",
                            "id": "0000015800"
                          },
                          {
                            "dataSource": "COSTAR",
                            "id": "397"
                          },
                          {
                            "dataSource": "CSP",
                            "id": "0571-5243"
                          },
                          {
                            "dataSource": "CST",
                            "id": "HYPERTENS"
                          },
                          {
                            "dataSource": "DXP",
                            "id": "U002034"
                          },
                          {
                            "dataSource": "HPO",
                            "id": "HP:0000822"
                          },
                          {
                            "dataSource": "ICD10",
                            "id": "I10-I15.9"
                          },
                          {
                            "dataSource": "ICD10AM",
                            "id": "I10-I15.9"
                          },
                          {
                            "dataSource": "ICD10CM",
                            "id": "I10"
                          },
                          {
                            "dataSource": "ICD9CM",
                            "id": "997.91"
                          },
                          {
                            "dataSource": "ICPC2ICD10ENG",
                            "id": "MTHU035456"
                          },
                          {
                            "dataSource": "ICPC2P",
                            "id": "K85004"
                          },
                          {
                            "dataSource": "LCH",
                            "id": "U002317"
                          },
                          {
                            "dataSource": "LCH_NW",
                            "id": "sh85063723"
                          },
                          {
                            "dataSource": "LNC",
                            "id": "LA14293-7"
                          },
                          {
                            "dataSource": "MDR",
                            "id": "10020772"
                          },
                          {
                            "dataSource": "MEDCIN",
                            "id": "33288"
                          },
                          {
                            "dataSource": "MEDLINEPLUS",
                            "id": "34"
                          },
                          {
                            "dataSource": "MSH",
                            "id": "D006973"
                          },
                          {
                            "dataSource": "MTH",
                            "id": "005"
                          },
                          {
                            "dataSource": "MTHICD9",
                            "id": "997.91"
                          },
                          {
                            "dataSource": "NANDA-I",
                            "id": "00905"
                          },
                          {
                            "dataSource": "NCI",
                            "id": "C3117"
                          },
                          {
                            "dataSource": "NCI_CPTAC",
                            "id": "C3117"
                          },
                          {
                            "dataSource": "NCI_CTCAE",
                            "id": "E13785"
                          },
                          {
                            "dataSource": "NCI_CTRP",
                            "id": "C3117"
                          },
                          {
                            "dataSource": "NCI_FDA",
                            "id": "1908"
                          },
                          {
                            "dataSource": "NCI_GDC",
                            "id": "C3117"
                          },
                          {
                            "dataSource": "NCI_NCI-GLOSS",
                            "id": "CDR0000458091"
                          },
                          {
                            "dataSource": "NCI_NICHD",
                            "id": "C3117"
                          },
                          {
                            "dataSource": "NCI_caDSR",
                            "id": "C3117"
                          },
                          {
                            "dataSource": "NOC",
                            "id": "060808"
                          },
                          {
                            "dataSource": "OMIM",
                            "id": "MTHU002068"
                          },
                          {
                            "dataSource": "PCDS",
                            "id": "PRB_11000.06"
                          },
                          {
                            "dataSource": "PDQ",
                            "id": "CDR0000686951"
                          },
                          {
                            "dataSource": "PSY",
                            "id": "23830"
                          },
                          {
                            "dataSource": "RCD",
                            "id": "XE0Ub"
                          },
                          {
                            "dataSource": "SNM",
                            "id": "F-70700"
                          },
                          {
                            "dataSource": "SNMI",
                            "id": "D3-02000"
                          },
                          {
                            "dataSource": "SNOMEDCT_US",
                            "id": "38341003"
                          },
                          {
                            "dataSource": "WHO",
                            "id": "0210"
                          }
                        ]
                      }
                    ],
                    "relations": [],
                    "warnings": [],
                    "fhirBundle": {
                      "resourceType": "Bundle",
                      "id": "602ebc05-b32e-4b9c-b27a-0a9de6bfb0ac",
                      "meta": {
                        "profile": [
                          "http://hl7.org/fhir/4.0.1/StructureDefinition/Bundle"
                        ]
                      },
                      "identifier": {
                        "system": "urn:ietf:rfc:3986",
                        "value": "urn:uuid:602ebc05-b32e-4b9c-b27a-0a9de6bfb0ac"
                      },
                      "type": "document",
                      "entry": [
                        {
                          "fullUrl": "Composition/2ce406a1-bcf6-4cbb-919c-85280dac2d96",
                          "resource": {
                            "resourceType": "Composition",
                            "id": "2ce406a1-bcf6-4cbb-919c-85280dac2d96",
                            "status": "final",
                            "type": {
                              "coding": [
                                {
                                  "system": "http://loinc.org",
                                  "code": "11526-1",
                                  "display": "Pathology study"
                                }
                              ],
                              "text": "Pathology study"
                            },
                            "subject": {
                              "reference": "Patient/f506b190-bbe4-41da-bb76-bd526f642ed5",
                              "type": "Patient"
                            },
                            "encounter": {
                              "reference": "Encounter/9f606072-2020-4c24-a168-4031f067fcc0",
                              "type": "Encounter",
                              "display": "unknown"
                            },
                            "date": "2022-05-06",
                            "author": [
                              {
                                "reference": "Practitioner/4bb5053d-a8e0-4850-9aac-e21acb61fd9e",
                                "type": "Practitioner",
                                "display": "Unknown"
                              }
                            ],
                            "title": "Pathology study",
                            "section": [
                              {
                                "title": "General",
                                "code": {
                                  "coding": [
                                    {
                                      "system": "",
                                      "display": "Unrecognized Section"
                                    }
                                  ],
                                  "text": "General"
                                },
                                "text": {
                                  "div": "\u003Cdiv\u003E\r\n\t\t\t\t\t\t\t\u003Ch1\u003EGeneral\u003C/h1\u003E\r\n\t\t\t\t\t\t\t\u003Cp\u003EPatient does not suffer from high blood pressure.\u003C/p\u003E\r\n\t\t\t\t\t\u003C/div\u003E"
                                },
                                "entry": [
                                  {
                                    "reference": "List/bcce0d13-9f40-413d-a6c3-ea47ff7e63cc",
                                    "type": "List",
                                    "display": "General"
                                  }
                                ]
                              }
                            ]
                          }
                        },
                        {
                          "fullUrl": "Practitioner/4bb5053d-a8e0-4850-9aac-e21acb61fd9e",
                          "resource": {
                            "resourceType": "Practitioner",
                            "id": "4bb5053d-a8e0-4850-9aac-e21acb61fd9e",
                            "extension": [
                              {
                                "extension": [
                                  {
                                    "url": "offset",
                                    "valueInteger": -1
                                  },
                                  {
                                    "url": "length",
                                    "valueInteger": 7
                                  }
                                ],
                                "url": "http://hl7.org/fhir/StructureDefinition/derivation-reference"
                              }
                            ],
                            "name": [
                              {
                                "text": "Unknown",
                                "family": "Unknown"
                              }
                            ]
                          }
                        },
                        {
                          "fullUrl": "Patient/f506b190-bbe4-41da-bb76-bd526f642ed5",
                          "resource": {
                            "resourceType": "Patient",
                            "id": "f506b190-bbe4-41da-bb76-bd526f642ed5",
                            "gender": "unknown"
                          }
                        },
                        {
                          "fullUrl": "Encounter/9f606072-2020-4c24-a168-4031f067fcc0",
                          "resource": {
                            "resourceType": "Encounter",
                            "id": "9f606072-2020-4c24-a168-4031f067fcc0",
                            "meta": {
                              "profile": [
                                "http://hl7.org/fhir/us/core/StructureDefinition/us-core-encounter"
                              ]
                            },
                            "status": "finished",
                            "class": {
                              "system": "http://terminology.hl7.org/CodeSystem/v3-ActCode",
                              "display": "unknown"
                            },
                            "subject": {
                              "reference": "Patient/f506b190-bbe4-41da-bb76-bd526f642ed5",
                              "type": "Patient"
                            }
                          }
                        },
                        {
                          "fullUrl": "Observation/82702fc3-0b2e-44f7-96e2-10858df5fdce",
                          "resource": {
                            "resourceType": "Observation",
                            "id": "82702fc3-0b2e-44f7-96e2-10858df5fdce",
                            "extension": [
                              {
                                "extension": [
                                  {
                                    "url": "offset",
                                    "valueInteger": 29
                                  },
                                  {
                                    "url": "length",
                                    "valueInteger": 19
                                  }
                                ],
                                "url": "http://hl7.org/fhir/StructureDefinition/derivation-reference"
                              }
                            ],
                            "status": "final",
                            "category": [
                              {
                                "coding": [
                                  {
                                    "system": "http://terminology.hl7.org/CodeSystem/observation-category",
                                    "code": "exam",
                                    "display": "Exam"
                                  }
                                ],
                                "text": "Exam"
                              }
                            ],
                            "code": {
                              "coding": [
                                {
                                  "system": "http://www.nlm.nih.gov/research/umls",
                                  "code": "C0020538",
                                  "display": "high blood pressure"
                                },
                                {
                                  "system": "http://www.nlm.nih.gov/research/umls/aod",
                                  "code": "0000023317"
                                },
                                {
                                  "system": "http://www.nlm.nih.gov/research/umls/bi",
                                  "code": "BI00001"
                                },
                                {
                                  "system": "http://www.nlm.nih.gov/research/umls/ccpss",
                                  "code": "1017493"
                                },
                                {
                                  "system": "http://www.nlm.nih.gov/research/umls/ccs",
                                  "code": "7.1"
                                },
                                {
                                  "system": "http://www.nlm.nih.gov/research/umls/chv",
                                  "code": "0000015800"
                                },
                                {
                                  "system": "http://www.nlm.nih.gov/research/umls/costar",
                                  "code": "397"
                                },
                                {
                                  "system": "http://www.nlm.nih.gov/research/umls/csp",
                                  "code": "0571-5243"
                                },
                                {
                                  "system": "http://www.nlm.nih.gov/research/umls/cst",
                                  "code": "HYPERTENS"
                                },
                                {
                                  "system": "http://www.nlm.nih.gov/research/umls/dxp",
                                  "code": "U002034"
                                },
                                {
                                  "system": "http://www.nlm.nih.gov/research/umls/hpo",
                                  "code": "HP:0000822"
                                },
                                {
                                  "system": "http://hl7.org/fhir/sid/icd-10",
                                  "code": "I10-I15.9"
                                },
                                {
                                  "system": "http://hl7.org/fhir/sid/icd-10-am",
                                  "code": "I10-I15.9"
                                },
                                {
                                  "system": "http://hl7.org/fhir/sid/icd-10-cm",
                                  "code": "I10"
                                },
                                {
                                  "system": "http://hl7.org/fhir/sid/icd-9-cm",
                                  "code": "997.91"
                                },
                                {
                                  "system": "http://hl7.org/fhir/sid/icpc2icd10eng",
                                  "code": "MTHU035456"
                                },
                                {
                                  "system": "http://hl7.org/fhir/sid/icpc-2p",
                                  "code": "K85004"
                                },
                                {
                                  "system": "http://www.nlm.nih.gov/research/umls/lch",
                                  "code": "U002317"
                                },
                                {
                                  "system": "http://www.nlm.nih.gov/research/umls/lch_nw",
                                  "code": "sh85063723"
                                },
                                {
                                  "system": "http://loinc.org",
                                  "code": "LA14293-7"
                                },
                                {
                                  "system": "http://www.nlm.nih.gov/research/umls/mdr",
                                  "code": "10020772"
                                },
                                {
                                  "system": "http://www.nlm.nih.gov/research/umls/medcin",
                                  "code": "33288"
                                },
                                {
                                  "system": "http://www.nlm.nih.gov/research/umls/medlineplus",
                                  "code": "34"
                                },
                                {
                                  "system": "http://www.nlm.nih.gov/research/umls/msh",
                                  "code": "D006973"
                                },
                                {
                                  "system": "http://www.nlm.nih.gov/research/umls/mth",
                                  "code": "005"
                                },
                                {
                                  "system": "http://www.nlm.nih.gov/research/umls/mthicd9",
                                  "code": "997.91"
                                },
                                {
                                  "system": "http://www.nlm.nih.gov/research/umls/nanda-i",
                                  "code": "00905"
                                },
                                {
                                  "system": "http://ncimeta.nci.nih.gov",
                                  "code": "C3117"
                                },
                                {
                                  "system": "http://www.nlm.nih.gov/research/umls/nci_cptac",
                                  "code": "C3117"
                                },
                                {
                                  "system": "http://www.nlm.nih.gov/research/umls/nci_ctcae",
                                  "code": "E13785"
                                },
                                {
                                  "system": "http://www.nlm.nih.gov/research/umls/nci_ctrp",
                                  "code": "C3117"
                                },
                                {
                                  "system": "http://www.nlm.nih.gov/research/umls/nci_fda",
                                  "code": "1908"
                                },
                                {
                                  "system": "http://www.nlm.nih.gov/research/umls/nci_gdc",
                                  "code": "C3117"
                                },
                                {
                                  "system": "http://www.nlm.nih.gov/research/umls/nci_nci-gloss",
                                  "code": "CDR0000458091"
                                },
                                {
                                  "system": "http://www.nlm.nih.gov/research/umls/nci_nichd",
                                  "code": "C3117"
                                },
                                {
                                  "system": "http://www.nlm.nih.gov/research/umls/nci_cadsr",
                                  "code": "C3117"
                                },
                                {
                                  "system": "http://www.nlm.nih.gov/research/umls/noc",
                                  "code": "060808"
                                },
                                {
                                  "system": "http://www.nlm.nih.gov/research/umls/omim",
                                  "code": "MTHU002068"
                                },
                                {
                                  "system": "http://www.nlm.nih.gov/research/umls/pcds",
                                  "code": "PRB_11000.06"
                                },
                                {
                                  "system": "http://www.nlm.nih.gov/research/umls/pdq",
                                  "code": "CDR0000686951"
                                },
                                {
                                  "system": "http://www.nlm.nih.gov/research/umls/psy",
                                  "code": "23830"
                                },
                                {
                                  "system": "http://www.nlm.nih.gov/research/umls/rcd",
                                  "code": "XE0Ub"
                                },
                                {
                                  "system": "http://snomed.info/sct",
                                  "code": "F-70700"
                                },
                                {
                                  "system": "http://snomed.info/sct/900000000000207008",
                                  "code": "D3-02000"
                                },
                                {
                                  "system": "http://snomed.info/sct/731000124108",
                                  "code": "38341003"
                                },
                                {
                                  "system": "http://www.nlm.nih.gov/research/umls/who",
                                  "code": "0210"
                                }
                              ],
                              "text": "high blood pressure"
                            },
                            "subject": {
                              "reference": "Patient/f506b190-bbe4-41da-bb76-bd526f642ed5",
                              "type": "Patient"
                            },
                            "encounter": {
                              "reference": "Encounter/9f606072-2020-4c24-a168-4031f067fcc0",
                              "type": "Encounter",
                              "display": "unknown"
                            },
                            "interpretation": [
                              {
                                "coding": [
                                  {
                                    "system": "http://terminology.hl7.org/CodeSystem/v3-ObservationInterpretation",
                                    "code": "POS",
                                    "display": "Positive"
                                  }
                                ],
                                "text": "Positive"
                              }
                            ]
                          }
                        },
                        {
                          "fullUrl": "List/bcce0d13-9f40-413d-a6c3-ea47ff7e63cc",
                          "resource": {
                            "resourceType": "List",
                            "id": "bcce0d13-9f40-413d-a6c3-ea47ff7e63cc",
                            "status": "current",
                            "mode": "snapshot",
                            "title": "General",
                            "subject": {
                              "reference": "Patient/f506b190-bbe4-41da-bb76-bd526f642ed5",
                              "type": "Patient"
                            },
                            "encounter": {
                              "reference": "Encounter/9f606072-2020-4c24-a168-4031f067fcc0",
                              "type": "Encounter",
                              "display": "unknown"
                            },
                            "entry": [
                              {
                                "item": {
                                  "reference": "Observation/82702fc3-0b2e-44f7-96e2-10858df5fdce",
                                  "type": "Observation",
                                  "display": "high blood pressure"
                                }
                              }
                            ]
                          }
                        }
                      ]
                    }
                  },
                  {
                    "id": "1",
                    "entities": [
                      {
                        "offset": 11,
                        "length": 5,
                        "text": "100mg",
                        "category": "Dosage",
                        "confidenceScore": 0.98
                      },
                      {
                        "offset": 17,
                        "length": 9,
                        "text": "ibuprofen",
                        "category": "MedicationName",
                        "confidenceScore": 1.0,
                        "name": "ibuprofen",
                        "links": [
                          {
                            "dataSource": "UMLS",
                            "id": "C0020740"
                          },
                          {
                            "dataSource": "AOD",
                            "id": "0000019879"
                          },
                          {
                            "dataSource": "ATC",
                            "id": "M01AE01"
                          },
                          {
                            "dataSource": "CCPSS",
                            "id": "0046165"
                          },
                          {
                            "dataSource": "CHV",
                            "id": "0000006519"
                          },
                          {
                            "dataSource": "CSP",
                            "id": "2270-2077"
                          },
                          {
                            "dataSource": "DRUGBANK",
                            "id": "DB01050"
                          },
                          {
                            "dataSource": "GS",
                            "id": "1611"
                          },
                          {
                            "dataSource": "LCH_NW",
                            "id": "sh97005926"
                          },
                          {
                            "dataSource": "LNC",
                            "id": "LP16165-0"
                          },
                          {
                            "dataSource": "MEDCIN",
                            "id": "40458"
                          },
                          {
                            "dataSource": "MMSL",
                            "id": "d00015"
                          },
                          {
                            "dataSource": "MSH",
                            "id": "D007052"
                          },
                          {
                            "dataSource": "MTHSPL",
                            "id": "WK2XYI10QM"
                          },
                          {
                            "dataSource": "NCI",
                            "id": "C561"
                          },
                          {
                            "dataSource": "NCI_CTRP",
                            "id": "C561"
                          },
                          {
                            "dataSource": "NCI_DCP",
                            "id": "00803"
                          },
                          {
                            "dataSource": "NCI_DTP",
                            "id": "NSC0256857"
                          },
                          {
                            "dataSource": "NCI_FDA",
                            "id": "WK2XYI10QM"
                          },
                          {
                            "dataSource": "NCI_NCI-GLOSS",
                            "id": "CDR0000613511"
                          },
                          {
                            "dataSource": "NDDF",
                            "id": "002377"
                          },
                          {
                            "dataSource": "PDQ",
                            "id": "CDR0000040475"
                          },
                          {
                            "dataSource": "RCD",
                            "id": "x02MO"
                          },
                          {
                            "dataSource": "RXNORM",
                            "id": "5640"
                          },
                          {
                            "dataSource": "SNM",
                            "id": "E-7772"
                          },
                          {
                            "dataSource": "SNMI",
                            "id": "C-603C0"
                          },
                          {
                            "dataSource": "SNOMEDCT_US",
                            "id": "387207008"
                          },
                          {
                            "dataSource": "USP",
                            "id": "m39860"
                          },
                          {
                            "dataSource": "USPMG",
                            "id": "MTHU000060"
                          },
                          {
                            "dataSource": "VANDF",
                            "id": "4017840"
                          }
                        ]
                      },
                      {
                        "offset": 34,
                        "length": 11,
                        "text": "twice daily",
                        "category": "Frequency",
                        "confidenceScore": 1.0
                      }
                    ],
                    "relations": [
                      {
                        "relationType": "DosageOfMedication",
                        "entities": [
                          {
                            "ref": "#/results/documents/1/entities/0",
                            "role": "Dosage"
                          },
                          {
                            "ref": "#/results/documents/1/entities/1",
                            "role": "Medication"
                          }
                        ]
                      },
                      {
                        "relationType": "FrequencyOfMedication",
                        "entities": [
                          {
                            "ref": "#/results/documents/1/entities/1",
                            "role": "Medication"
                          },
                          {
                            "ref": "#/results/documents/1/entities/2",
                            "role": "Frequency"
                          }
                        ]
                      }
                    ],
                    "warnings": [],
                    "fhirBundle": {
                      "resourceType": "Bundle",
                      "id": "3cff7d88-bd57-44b3-9174-241e3d39f616",
                      "meta": {
                        "profile": [
                          "http://hl7.org/fhir/4.0.1/StructureDefinition/Bundle"
                        ]
                      },
                      "identifier": {
                        "system": "urn:ietf:rfc:3986",
                        "value": "urn:uuid:3cff7d88-bd57-44b3-9174-241e3d39f616"
                      },
                      "type": "document",
                      "entry": [
                        {
                          "fullUrl": "Composition/9bc202d9-563a-4df7-b74b-3bb861354f82",
                          "resource": {
                            "resourceType": "Composition",
                            "id": "9bc202d9-563a-4df7-b74b-3bb861354f82",
                            "status": "final",
                            "type": {
                              "coding": [
                                {
                                  "system": "http://loinc.org",
                                  "code": "11526-1",
                                  "display": "Pathology study"
                                }
                              ],
                              "text": "Pathology study"
                            },
                            "subject": {
                              "reference": "Patient/d0b72341-a397-4df5-85ce-6cc09cc9f0b6",
                              "type": "Patient"
                            },
                            "encounter": {
                              "reference": "Encounter/27b4f1f5-9b27-4e97-a382-343442f2bc1c",
                              "type": "Encounter",
                              "display": "unknown"
                            },
                            "date": "2022-05-06",
                            "author": [
                              {
                                "reference": "Practitioner/48959fef-e275-41ee-930f-91e20a87d9b3",
                                "type": "Practitioner",
                                "display": "Unknown"
                              }
                            ],
                            "title": "Pathology study",
                            "section": [
                              {
                                "title": "General",
                                "code": {
                                  "coding": [
                                    {
                                      "system": "",
                                      "display": "Unrecognized Section"
                                    }
                                  ],
                                  "text": "General"
                                },
                                "text": {
                                  "div": "\u003Cdiv\u003E\r\n\t\t\t\t\t\t\t\u003Ch1\u003EGeneral\u003C/h1\u003E\r\n\t\t\t\t\t\t\t\u003Cp\u003EPrescribed 100mg ibuprofen, taken twice daily.\u003C/p\u003E\r\n\t\t\t\t\t\u003C/div\u003E"
                                },
                                "entry": [
                                  {
                                    "reference": "List/c90e2dbe-7a04-4515-a1ba-50b209ae1505",
                                    "type": "List",
                                    "display": "General"
                                  }
                                ]
                              }
                            ]
                          }
                        },
                        {
                          "fullUrl": "Practitioner/48959fef-e275-41ee-930f-91e20a87d9b3",
                          "resource": {
                            "resourceType": "Practitioner",
                            "id": "48959fef-e275-41ee-930f-91e20a87d9b3",
                            "extension": [
                              {
                                "extension": [
                                  {
                                    "url": "offset",
                                    "valueInteger": -1
                                  },
                                  {
                                    "url": "length",
                                    "valueInteger": 7
                                  }
                                ],
                                "url": "http://hl7.org/fhir/StructureDefinition/derivation-reference"
                              }
                            ],
                            "name": [
                              {
                                "text": "Unknown",
                                "family": "Unknown"
                              }
                            ]
                          }
                        },
                        {
                          "fullUrl": "Patient/d0b72341-a397-4df5-85ce-6cc09cc9f0b6",
                          "resource": {
                            "resourceType": "Patient",
                            "id": "d0b72341-a397-4df5-85ce-6cc09cc9f0b6",
                            "gender": "unknown"
                          }
                        },
                        {
                          "fullUrl": "Encounter/27b4f1f5-9b27-4e97-a382-343442f2bc1c",
                          "resource": {
                            "resourceType": "Encounter",
                            "id": "27b4f1f5-9b27-4e97-a382-343442f2bc1c",
                            "meta": {
                              "profile": [
                                "http://hl7.org/fhir/us/core/StructureDefinition/us-core-encounter"
                              ]
                            },
                            "status": "finished",
                            "class": {
                              "system": "http://terminology.hl7.org/CodeSystem/v3-ActCode",
                              "display": "unknown"
                            },
                            "subject": {
                              "reference": "Patient/d0b72341-a397-4df5-85ce-6cc09cc9f0b6",
                              "type": "Patient"
                            }
                          }
                        },
                        {
                          "fullUrl": "MedicationStatement/12517312-1ab5-4953-b295-c9d2226f5a4a",
                          "resource": {
                            "resourceType": "MedicationStatement",
                            "id": "12517312-1ab5-4953-b295-c9d2226f5a4a",
                            "extension": [
                              {
                                "extension": [
                                  {
                                    "url": "offset",
                                    "valueInteger": 17
                                  },
                                  {
                                    "url": "length",
                                    "valueInteger": 9
                                  }
                                ],
                                "url": "http://hl7.org/fhir/StructureDefinition/derivation-reference"
                              }
                            ],
                            "status": "active",
                            "medicationCodeableConcept": {
                              "coding": [
                                {
                                  "system": "http://www.nlm.nih.gov/research/umls",
                                  "code": "C0020740",
                                  "display": "ibuprofen"
                                },
                                {
                                  "system": "http://www.nlm.nih.gov/research/umls/aod",
                                  "code": "0000019879"
                                },
                                {
                                  "system": "http://www.whocc.no/atc",
                                  "code": "M01AE01"
                                },
                                {
                                  "system": "http://www.nlm.nih.gov/research/umls/ccpss",
                                  "code": "0046165"
                                },
                                {
                                  "system": "http://www.nlm.nih.gov/research/umls/chv",
                                  "code": "0000006519"
                                },
                                {
                                  "system": "http://www.nlm.nih.gov/research/umls/csp",
                                  "code": "2270-2077"
                                },
                                {
                                  "system": "http://www.nlm.nih.gov/research/umls/drugbank",
                                  "code": "DB01050"
                                },
                                {
                                  "system": "http://www.nlm.nih.gov/research/umls/gs",
                                  "code": "1611"
                                },
                                {
                                  "system": "http://www.nlm.nih.gov/research/umls/lch_nw",
                                  "code": "sh97005926"
                                },
                                {
                                  "system": "http://loinc.org",
                                  "code": "LP16165-0"
                                },
                                {
                                  "system": "http://www.nlm.nih.gov/research/umls/medcin",
                                  "code": "40458"
                                },
                                {
                                  "system": "http://www.nlm.nih.gov/research/umls/mmsl",
                                  "code": "d00015"
                                },
                                {
                                  "system": "http://www.nlm.nih.gov/research/umls/msh",
                                  "code": "D007052"
                                },
                                {
                                  "system": "http://www.nlm.nih.gov/research/umls/mthspl",
                                  "code": "WK2XYI10QM"
                                },
                                {
                                  "system": "http://ncimeta.nci.nih.gov",
                                  "code": "C561"
                                },
                                {
                                  "system": "http://www.nlm.nih.gov/research/umls/nci_ctrp",
                                  "code": "C561"
                                },
                                {
                                  "system": "http://www.nlm.nih.gov/research/umls/nci_dcp",
                                  "code": "00803"
                                },
                                {
                                  "system": "http://www.nlm.nih.gov/research/umls/nci_dtp",
                                  "code": "NSC0256857"
                                },
                                {
                                  "system": "http://www.nlm.nih.gov/research/umls/nci_fda",
                                  "code": "WK2XYI10QM"
                                },
                                {
                                  "system": "http://www.nlm.nih.gov/research/umls/nci_nci-gloss",
                                  "code": "CDR0000613511"
                                },
                                {
                                  "system": "http://www.nlm.nih.gov/research/umls/nddf",
                                  "code": "002377"
                                },
                                {
                                  "system": "http://www.nlm.nih.gov/research/umls/pdq",
                                  "code": "CDR0000040475"
                                },
                                {
                                  "system": "http://www.nlm.nih.gov/research/umls/rcd",
                                  "code": "x02MO"
                                },
                                {
                                  "system": "http://www.nlm.nih.gov/research/umls/rxnorm",
                                  "code": "5640"
                                },
                                {
                                  "system": "http://snomed.info/sct",
                                  "code": "E-7772"
                                },
                                {
                                  "system": "http://snomed.info/sct/900000000000207008",
                                  "code": "C-603C0"
                                },
                                {
                                  "system": "http://snomed.info/sct/731000124108",
                                  "code": "387207008"
                                },
                                {
                                  "system": "http://www.nlm.nih.gov/research/umls/usp",
                                  "code": "m39860"
                                },
                                {
                                  "system": "http://www.nlm.nih.gov/research/umls/uspmg",
                                  "code": "MTHU000060"
                                },
                                {
                                  "system": "http://hl7.org/fhir/ndfrt",
                                  "code": "4017840"
                                }
                              ],
                              "text": "ibuprofen"
                            },
                            "subject": {
                              "reference": "Patient/d0b72341-a397-4df5-85ce-6cc09cc9f0b6",
                              "type": "Patient"
                            },
                            "context": {
                              "reference": "Encounter/27b4f1f5-9b27-4e97-a382-343442f2bc1c",
                              "type": "Encounter",
                              "display": "unknown"
                            },
                            "dosage": [
                              {
                                "text": "100mg",
                                "timing": {
                                  "repeat": {
                                    "frequency": 2,
                                    "period": 1,
                                    "periodUnit": "d"
                                  },
                                  "code": {
                                    "text": "twice daily"
                                  }
                                },
                                "doseAndRate": [
                                  {
                                    "doseQuantity": {
                                      "value": 100
                                    }
                                  }
                                ]
                              }
                            ]
                          }
                        },
                        {
                          "fullUrl": "List/c90e2dbe-7a04-4515-a1ba-50b209ae1505",
                          "resource": {
                            "resourceType": "List",
                            "id": "c90e2dbe-7a04-4515-a1ba-50b209ae1505",
                            "status": "current",
                            "mode": "snapshot",
                            "title": "General",
                            "subject": {
                              "reference": "Patient/d0b72341-a397-4df5-85ce-6cc09cc9f0b6",
                              "type": "Patient"
                            },
                            "encounter": {
                              "reference": "Encounter/27b4f1f5-9b27-4e97-a382-343442f2bc1c",
                              "type": "Encounter",
                              "display": "unknown"
                            },
                            "entry": [
                              {
                                "item": {
                                  "reference": "MedicationStatement/12517312-1ab5-4953-b295-c9d2226f5a4a",
                                  "type": "MedicationStatement",
                                  "display": "ibuprofen"
                                }
                              }
                            ]
                          }
                        }
                      ]
                    }
                  },
                  {
                    "id": "2",
                    "entities": [
                      {
                        "offset": 0,
                        "length": 4,
                        "text": "Baby",
                        "category": "Age",
                        "confidenceScore": 0.94,
                        "name": "Infant",
                        "links": [
                          {
                            "dataSource": "UMLS",
                            "id": "C0021270"
                          },
                          {
                            "dataSource": "AOD",
                            "id": "0000005273"
                          },
                          {
                            "dataSource": "CCPSS",
                            "id": "0030805"
                          },
                          {
                            "dataSource": "CHV",
                            "id": "0000006675"
                          },
                          {
                            "dataSource": "DXP",
                            "id": "U002089"
                          },
                          {
                            "dataSource": "LCH",
                            "id": "U002421"
                          },
                          {
                            "dataSource": "LCH_NW",
                            "id": "sh85066022"
                          },
                          {
                            "dataSource": "LNC",
                            "id": "LA19747-7"
                          },
                          {
                            "dataSource": "MDR",
                            "id": "10021731"
                          },
                          {
                            "dataSource": "MSH",
                            "id": "D007223"
                          },
                          {
                            "dataSource": "NCI",
                            "id": "C27956"
                          },
                          {
                            "dataSource": "NCI_FDA",
                            "id": "C27956"
                          },
                          {
                            "dataSource": "NCI_NICHD",
                            "id": "C27956"
                          },
                          {
                            "dataSource": "SNOMEDCT_US",
                            "id": "133931009"
                          }
                        ]
                      },
                      {
                        "offset": 24,
                        "length": 10,
                        "text": "Meningitis",
                        "category": "Diagnosis",
                        "confidenceScore": 1.0,
                        "assertion": {
                          "certainty": "negativePossible"
                        },
                        "name": "Meningitis",
                        "links": [
                          {
                            "dataSource": "UMLS",
                            "id": "C0025289"
                          },
                          {
                            "dataSource": "AOD",
                            "id": "0000006185"
                          },
                          {
                            "dataSource": "BI",
                            "id": "BI00546"
                          },
                          {
                            "dataSource": "CCPSS",
                            "id": "1018016"
                          },
                          {
                            "dataSource": "CCSR_10",
                            "id": "NVS001"
                          },
                          {
                            "dataSource": "CCSR_ICD10CM",
                            "id": "NVS001"
                          },
                          {
                            "dataSource": "CHV",
                            "id": "0000007932"
                          },
                          {
                            "dataSource": "COSTAR",
                            "id": "478"
                          },
                          {
                            "dataSource": "CSP",
                            "id": "2042-5301"
                          },
                          {
                            "dataSource": "CST",
                            "id": "MENINGITIS"
                          },
                          {
                            "dataSource": "DXP",
                            "id": "U002543"
                          },
                          {
                            "dataSource": "HPO",
                            "id": "HP:0001287"
                          },
                          {
                            "dataSource": "ICD10",
                            "id": "G03.9"
                          },
                          {
                            "dataSource": "ICD10AM",
                            "id": "G03.9"
                          },
                          {
                            "dataSource": "ICD10CM",
                            "id": "G03.9"
                          },
                          {
                            "dataSource": "ICD9CM",
                            "id": "322.9"
                          },
                          {
                            "dataSource": "ICPC2ICD10ENG",
                            "id": "MTHU048434"
                          },
                          {
                            "dataSource": "ICPC2P",
                            "id": "N71002"
                          },
                          {
                            "dataSource": "LCH",
                            "id": "U002901"
                          },
                          {
                            "dataSource": "LCH_NW",
                            "id": "sh85083562"
                          },
                          {
                            "dataSource": "LNC",
                            "id": "LP20756-0"
                          },
                          {
                            "dataSource": "MDR",
                            "id": "10027199"
                          },
                          {
                            "dataSource": "MEDCIN",
                            "id": "31192"
                          },
                          {
                            "dataSource": "MEDLINEPLUS",
                            "id": "324"
                          },
                          {
                            "dataSource": "MSH",
                            "id": "D008581"
                          },
                          {
                            "dataSource": "NANDA-I",
                            "id": "02899"
                          },
                          {
                            "dataSource": "NCI",
                            "id": "C26828"
                          },
                          {
                            "dataSource": "NCI_CPTAC",
                            "id": "C26828"
                          },
                          {
                            "dataSource": "NCI_CTCAE",
                            "id": "E11458"
                          },
                          {
                            "dataSource": "NCI_FDA",
                            "id": "2389"
                          },
                          {
                            "dataSource": "NCI_NCI-GLOSS",
                            "id": "CDR0000471780"
                          },
                          {
                            "dataSource": "NCI_NICHD",
                            "id": "C26828"
                          },
                          {
                            "dataSource": "NCI_caDSR",
                            "id": "C26828"
                          },
                          {
                            "dataSource": "OMIM",
                            "id": "MTHU005994"
                          },
                          {
                            "dataSource": "PSY",
                            "id": "30660"
                          },
                          {
                            "dataSource": "RCD",
                            "id": "X000H"
                          },
                          {
                            "dataSource": "SNM",
                            "id": "M-40000"
                          },
                          {
                            "dataSource": "SNMI",
                            "id": "DA-10010"
                          },
                          {
                            "dataSource": "SNOMEDCT_US",
                            "id": "7180009"
                          },
                          {
                            "dataSource": "WHO",
                            "id": "0955"
                          }
                        ]
                      },
                      {
                        "offset": 47,
                        "length": 5,
                        "text": "fever",
                        "category": "SymptomOrSign",
                        "confidenceScore": 0.98,
                        "name": "Fever",
                        "links": [
                          {
                            "dataSource": "UMLS",
                            "id": "C0015967"
                          },
                          {
                            "dataSource": "AIR",
                            "id": "FEVER"
                          },
                          {
                            "dataSource": "AOD",
                            "id": "0000004396"
                          },
                          {
                            "dataSource": "BI",
                            "id": "BI00751"
                          },
                          {
                            "dataSource": "CCC",
                            "id": "K25.2"
                          },
                          {
                            "dataSource": "CCPSS",
                            "id": "1017166"
                          },
                          {
                            "dataSource": "CCSR_10",
                            "id": "SYM002"
                          },
                          {
                            "dataSource": "CCSR_ICD10CM",
                            "id": "SYM002"
                          },
                          {
                            "dataSource": "CHV",
                            "id": "0000005010"
                          },
                          {
                            "dataSource": "COSTAR",
                            "id": "300"
                          },
                          {
                            "dataSource": "CPM",
                            "id": "65287"
                          },
                          {
                            "dataSource": "CSP",
                            "id": "2871-4310"
                          },
                          {
                            "dataSource": "CST",
                            "id": "FEVER"
                          },
                          {
                            "dataSource": "DXP",
                            "id": "U001483"
                          },
                          {
                            "dataSource": "GO",
                            "id": "GO:0001660"
                          },
                          {
                            "dataSource": "HPO",
                            "id": "HP:0001945"
                          },
                          {
                            "dataSource": "ICD10",
                            "id": "R50.9"
                          },
                          {
                            "dataSource": "ICD10AM",
                            "id": "R50.9"
                          },
                          {
                            "dataSource": "ICD10CM",
                            "id": "R50.9"
                          },
                          {
                            "dataSource": "ICD9CM",
                            "id": "780.60"
                          },
                          {
                            "dataSource": "ICNP",
                            "id": "10041539"
                          },
                          {
                            "dataSource": "ICPC",
                            "id": "A03"
                          },
                          {
                            "dataSource": "ICPC2EENG",
                            "id": "A03"
                          },
                          {
                            "dataSource": "ICPC2ICD10ENG",
                            "id": "MTHU041751"
                          },
                          {
                            "dataSource": "ICPC2P",
                            "id": "A03002"
                          },
                          {
                            "dataSource": "LCH",
                            "id": "U001776"
                          },
                          {
                            "dataSource": "LCH_NW",
                            "id": "sh85047994"
                          },
                          {
                            "dataSource": "LNC",
                            "id": "MTHU013518"
                          },
                          {
                            "dataSource": "MDR",
                            "id": "10005911"
                          },
                          {
                            "dataSource": "MEDCIN",
                            "id": "6005"
                          },
                          {
                            "dataSource": "MEDLINEPLUS",
                            "id": "511"
                          },
                          {
                            "dataSource": "MSH",
                            "id": "D005334"
                          },
                          {
                            "dataSource": "MTHICD9",
                            "id": "780.60"
                          },
                          {
                            "dataSource": "NANDA-I",
                            "id": "01128"
                          },
                          {
                            "dataSource": "NCI",
                            "id": "C3038"
                          },
                          {
                            "dataSource": "NCI_CTCAE",
                            "id": "E11102"
                          },
                          {
                            "dataSource": "NCI_FDA",
                            "id": "1858"
                          },
                          {
                            "dataSource": "NCI_GDC",
                            "id": "C3038"
                          },
                          {
                            "dataSource": "NCI_NCI-GLOSS",
                            "id": "CDR0000450108"
                          },
                          {
                            "dataSource": "NCI_NICHD",
                            "id": "C3038"
                          },
                          {
                            "dataSource": "NCI_caDSR",
                            "id": "C3038"
                          },
                          {
                            "dataSource": "NOC",
                            "id": "070307"
                          },
                          {
                            "dataSource": "OMIM",
                            "id": "MTHU005439"
                          },
                          {
                            "dataSource": "OMS",
                            "id": "50.03"
                          },
                          {
                            "dataSource": "PCDS",
                            "id": "PRB_11020.02"
                          },
                          {
                            "dataSource": "PDQ",
                            "id": "CDR0000775882"
                          },
                          {
                            "dataSource": "PSY",
                            "id": "23840"
                          },
                          {
                            "dataSource": "QMR",
                            "id": "Q0200115"
                          },
                          {
                            "dataSource": "RCD",
                            "id": "X76EI"
                          },
                          {
                            "dataSource": "SNM",
                            "id": "F-03003"
                          },
                          {
                            "dataSource": "SNMI",
                            "id": "F-03003"
                          },
                          {
                            "dataSource": "SNOMEDCT_US",
                            "id": "386661006"
                          },
                          {
                            "dataSource": "WHO",
                            "id": "0725"
                          }
                        ]
                      },
                      {
                        "offset": 60,
                        "length": 6,
                        "text": "mother",
                        "category": "FamilyRelation",
                        "confidenceScore": 0.99,
                        "name": "Mother (person)",
                        "links": [
                          {
                            "dataSource": "UMLS",
                            "id": "C0026591"
                          },
                          {
                            "dataSource": "AOD",
                            "id": "0000027173"
                          },
                          {
                            "dataSource": "CCPSS",
                            "id": "U000286"
                          },
                          {
                            "dataSource": "CHV",
                            "id": "0000008266"
                          },
                          {
                            "dataSource": "CSP",
                            "id": "1124-5492"
                          },
                          {
                            "dataSource": "HL7V3.0",
                            "id": "MTH"
                          },
                          {
                            "dataSource": "LCH",
                            "id": "U003028"
                          },
                          {
                            "dataSource": "LCH_NW",
                            "id": "sh85087526"
                          },
                          {
                            "dataSource": "LNC",
                            "id": "LA10417-6"
                          },
                          {
                            "dataSource": "MSH",
                            "id": "D009035"
                          },
                          {
                            "dataSource": "NCI",
                            "id": "C25189"
                          },
                          {
                            "dataSource": "NCI_CDISC",
                            "id": "C25189"
                          },
                          {
                            "dataSource": "NCI_GDC",
                            "id": "C25189"
                          },
                          {
                            "dataSource": "NCI_caDSR",
                            "id": "C25189"
                          },
                          {
                            "dataSource": "PSY",
                            "id": "32140"
                          },
                          {
                            "dataSource": "RCD",
                            "id": "X78ym"
                          },
                          {
                            "dataSource": "SNMI",
                            "id": "S-10120"
                          },
                          {
                            "dataSource": "SNOMEDCT_US",
                            "id": "72705000"
                          }
                        ]
                      },
                      {
                        "offset": 77,
                        "length": 10,
                        "text": "Penicillin",
                        "category": "MedicationName",
                        "confidenceScore": 0.84,
                        "assertion": {
                          "certainty": "neutralPossible"
                        },
                        "name": "penicillins",
                        "links": [
                          {
                            "dataSource": "UMLS",
                            "id": "C0030842"
                          },
                          {
                            "dataSource": "AOD",
                            "id": "0000019206"
                          },
                          {
                            "dataSource": "ATC",
                            "id": "J01C"
                          },
                          {
                            "dataSource": "CCPSS",
                            "id": "0014106"
                          },
                          {
                            "dataSource": "CHV",
                            "id": "0000009423"
                          },
                          {
                            "dataSource": "CSP",
                            "id": "0199-8025"
                          },
                          {
                            "dataSource": "GS",
                            "id": "4011"
                          },
                          {
                            "dataSource": "LCH",
                            "id": "U003521"
                          },
                          {
                            "dataSource": "LCH_NW",
                            "id": "sh85099402"
                          },
                          {
                            "dataSource": "LNC",
                            "id": "LP14319-5"
                          },
                          {
                            "dataSource": "MEDCIN",
                            "id": "40319"
                          },
                          {
                            "dataSource": "MMSL",
                            "id": "d00116"
                          },
                          {
                            "dataSource": "MSH",
                            "id": "D010406"
                          },
                          {
                            "dataSource": "NCI",
                            "id": "C1500"
                          },
                          {
                            "dataSource": "NCI_DTP",
                            "id": "NSC0402815"
                          },
                          {
                            "dataSource": "NCI_NCI-GLOSS",
                            "id": "CDR0000045296"
                          },
                          {
                            "dataSource": "NDDF",
                            "id": "016121"
                          },
                          {
                            "dataSource": "PSY",
                            "id": "37190"
                          },
                          {
                            "dataSource": "RCD",
                            "id": "x009C"
                          },
                          {
                            "dataSource": "SNM",
                            "id": "E-7260"
                          },
                          {
                            "dataSource": "SNMI",
                            "id": "C-54000"
                          },
                          {
                            "dataSource": "SNOMEDCT_US",
                            "id": "764146007"
                          },
                          {
                            "dataSource": "VANDF",
                            "id": "4019880"
                          }
                        ]
                      },
                      {
                        "offset": 96,
                        "length": 4,
                        "text": "baby",
                        "category": "FamilyRelation",
                        "confidenceScore": 1.0,
                        "name": "Infant",
                        "links": [
                          {
                            "dataSource": "UMLS",
                            "id": "C0021270"
                          },
                          {
                            "dataSource": "AOD",
                            "id": "0000005273"
                          },
                          {
                            "dataSource": "CCPSS",
                            "id": "0030805"
                          },
                          {
                            "dataSource": "CHV",
                            "id": "0000006675"
                          },
                          {
                            "dataSource": "DXP",
                            "id": "U002089"
                          },
                          {
                            "dataSource": "LCH",
                            "id": "U002421"
                          },
                          {
                            "dataSource": "LCH_NW",
                            "id": "sh85066022"
                          },
                          {
                            "dataSource": "LNC",
                            "id": "LA19747-7"
                          },
                          {
                            "dataSource": "MDR",
                            "id": "10021731"
                          },
                          {
                            "dataSource": "MSH",
                            "id": "D007223"
                          },
                          {
                            "dataSource": "NCI",
                            "id": "C27956"
                          },
                          {
                            "dataSource": "NCI_FDA",
                            "id": "C27956"
                          },
                          {
                            "dataSource": "NCI_NICHD",
                            "id": "C27956"
                          },
                          {
                            "dataSource": "SNOMEDCT_US",
                            "id": "133931009"
                          }
                        ]
                      }
                    ],
                    "relations": [],
                    "warnings": [],
                    "fhirBundle": {
                      "resourceType": "Bundle",
                      "id": "3d9fd6ac-3c02-42b7-9487-ee9890471abb",
                      "meta": {
                        "profile": [
                          "http://hl7.org/fhir/4.0.1/StructureDefinition/Bundle"
                        ]
                      },
                      "identifier": {
                        "system": "urn:ietf:rfc:3986",
                        "value": "urn:uuid:3d9fd6ac-3c02-42b7-9487-ee9890471abb"
                      },
                      "type": "document",
                      "entry": [
                        {
                          "fullUrl": "Composition/668f37f5-c798-4c09-af4f-d4a21a7f0241",
                          "resource": {
                            "resourceType": "Composition",
                            "id": "668f37f5-c798-4c09-af4f-d4a21a7f0241",
                            "status": "final",
                            "type": {
                              "coding": [
                                {
                                  "system": "http://loinc.org",
                                  "code": "11526-1",
                                  "display": "Pathology study"
                                }
                              ],
                              "text": "Pathology study"
                            },
                            "subject": {
                              "reference": "Patient/36ff1b88-4846-4211-bfff-a51e232e12f6",
                              "type": "Patient"
                            },
                            "encounter": {
                              "reference": "Encounter/1bf06e10-330f-455c-a60a-f4c0dde3d70c",
                              "type": "Encounter",
                              "display": "unknown"
                            },
                            "date": "2022-05-06",
                            "author": [
                              {
                                "reference": "Practitioner/1352a91f-3010-49b1-ae3b-1a34e8e4a5b4",
                                "type": "Practitioner",
                                "display": "Unknown"
                              }
                            ],
                            "title": "Pathology study",
                            "section": [
                              {
                                "title": "General",
                                "code": {
                                  "coding": [
                                    {
                                      "system": "",
                                      "display": "Unrecognized Section"
                                    }
                                  ],
                                  "text": "General"
                                },
                                "text": {
                                  "div": "\u003Cdiv\u003E\r\n\t\t\t\t\t\t\t\u003Ch1\u003EGeneral\u003C/h1\u003E\r\n\t\t\t\t\t\t\t\u003Cp\u003EBaby not likely to have Meningitis. in case of fever in the mother, consider Penicillin for the baby too.\u003C/p\u003E\r\n\t\t\t\t\t\u003C/div\u003E"
                                },
                                "entry": [
                                  {
                                    "reference": "List/4ab98bbd-d970-4eba-bc97-ea882ef0a49b",
                                    "type": "List",
                                    "display": "General"
                                  }
                                ]
                              }
                            ]
                          }
                        },
                        {
                          "fullUrl": "Practitioner/1352a91f-3010-49b1-ae3b-1a34e8e4a5b4",
                          "resource": {
                            "resourceType": "Practitioner",
                            "id": "1352a91f-3010-49b1-ae3b-1a34e8e4a5b4",
                            "extension": [
                              {
                                "extension": [
                                  {
                                    "url": "offset",
                                    "valueInteger": -1
                                  },
                                  {
                                    "url": "length",
                                    "valueInteger": 7
                                  }
                                ],
                                "url": "http://hl7.org/fhir/StructureDefinition/derivation-reference"
                              }
                            ],
                            "name": [
                              {
                                "text": "Unknown",
                                "family": "Unknown"
                              }
                            ]
                          }
                        },
                        {
                          "fullUrl": "Patient/36ff1b88-4846-4211-bfff-a51e232e12f6",
                          "resource": {
                            "resourceType": "Patient",
                            "id": "36ff1b88-4846-4211-bfff-a51e232e12f6",
                            "gender": "unknown"
                          }
                        },
                        {
                          "fullUrl": "Encounter/1bf06e10-330f-455c-a60a-f4c0dde3d70c",
                          "resource": {
                            "resourceType": "Encounter",
                            "id": "1bf06e10-330f-455c-a60a-f4c0dde3d70c",
                            "meta": {
                              "profile": [
                                "http://hl7.org/fhir/us/core/StructureDefinition/us-core-encounter"
                              ]
                            },
                            "status": "finished",
                            "class": {
                              "system": "http://terminology.hl7.org/CodeSystem/v3-ActCode",
                              "display": "unknown"
                            },
                            "subject": {
                              "reference": "Patient/36ff1b88-4846-4211-bfff-a51e232e12f6",
                              "type": "Patient"
                            }
                          }
                        },
                        {
                          "fullUrl": "Condition/c387a9b2-1095-48e1-9478-de662d3151d0",
                          "resource": {
                            "resourceType": "Condition",
                            "id": "c387a9b2-1095-48e1-9478-de662d3151d0",
                            "meta": {
                              "profile": [
                                "http://hl7.org/fhir/us/core/StructureDefinition/us-core-condition"
                              ]
                            },
                            "extension": [
                              {
                                "extension": [
                                  {
                                    "url": "offset",
                                    "valueInteger": 24
                                  },
                                  {
                                    "url": "length",
                                    "valueInteger": 10
                                  }
                                ],
                                "url": "http://hl7.org/fhir/StructureDefinition/derivation-reference"
                              }
                            ],
                            "verificationStatus": {
                              "coding": [
                                {
                                  "system": "http://terminology.hl7.org/CodeSystem/condition-ver-status",
                                  "code": "confirmed",
                                  "display": "Confirmed"
                                }
                              ],
                              "text": "Confirmed"
                            },
                            "category": [
                              {
                                "coding": [
                                  {
                                    "system": "http://terminology.hl7.org/CodeSystem/condition-category",
                                    "code": "encounter-diagnosis",
                                    "display": "Encounter Diagnosis"
                                  }
                                ],
                                "text": "Encounter Diagnosis"
                              }
                            ],
                            "code": {
                              "coding": [
                                {
                                  "system": "http://www.nlm.nih.gov/research/umls",
                                  "code": "C0025289",
                                  "display": "Meningitis"
                                },
                                {
                                  "system": "http://www.nlm.nih.gov/research/umls/aod",
                                  "code": "0000006185"
                                },
                                {
                                  "system": "http://www.nlm.nih.gov/research/umls/bi",
                                  "code": "BI00546"
                                },
                                {
                                  "system": "http://www.nlm.nih.gov/research/umls/ccpss",
                                  "code": "1018016"
                                },
                                {
                                  "system": "http://www.nlm.nih.gov/research/umls/ccsr_10",
                                  "code": "NVS001"
                                },
                                {
                                  "system": "http://www.nlm.nih.gov/research/umls/ccsr_icd10cm",
                                  "code": "NVS001"
                                },
                                {
                                  "system": "http://www.nlm.nih.gov/research/umls/chv",
                                  "code": "0000007932"
                                },
                                {
                                  "system": "http://www.nlm.nih.gov/research/umls/costar",
                                  "code": "478"
                                },
                                {
                                  "system": "http://www.nlm.nih.gov/research/umls/csp",
                                  "code": "2042-5301"
                                },
                                {
                                  "system": "http://www.nlm.nih.gov/research/umls/cst",
                                  "code": "MENINGITIS"
                                },
                                {
                                  "system": "http://www.nlm.nih.gov/research/umls/dxp",
                                  "code": "U002543"
                                },
                                {
                                  "system": "http://www.nlm.nih.gov/research/umls/hpo",
                                  "code": "HP:0001287"
                                },
                                {
                                  "system": "http://hl7.org/fhir/sid/icd-10",
                                  "code": "G03.9"
                                },
                                {
                                  "system": "http://hl7.org/fhir/sid/icd-10-am",
                                  "code": "G03.9"
                                },
                                {
                                  "system": "http://hl7.org/fhir/sid/icd-10-cm",
                                  "code": "G03.9"
                                },
                                {
                                  "system": "http://hl7.org/fhir/sid/icd-9-cm",
                                  "code": "322.9"
                                },
                                {
                                  "system": "http://hl7.org/fhir/sid/icpc2icd10eng",
                                  "code": "MTHU048434"
                                },
                                {
                                  "system": "http://hl7.org/fhir/sid/icpc-2p",
                                  "code": "N71002"
                                },
                                {
                                  "system": "http://www.nlm.nih.gov/research/umls/lch",
                                  "code": "U002901"
                                },
                                {
                                  "system": "http://www.nlm.nih.gov/research/umls/lch_nw",
                                  "code": "sh85083562"
                                },
                                {
                                  "system": "http://loinc.org",
                                  "code": "LP20756-0"
                                },
                                {
                                  "system": "http://www.nlm.nih.gov/research/umls/mdr",
                                  "code": "10027199"
                                },
                                {
                                  "system": "http://www.nlm.nih.gov/research/umls/medcin",
                                  "code": "31192"
                                },
                                {
                                  "system": "http://www.nlm.nih.gov/research/umls/medlineplus",
                                  "code": "324"
                                },
                                {
                                  "system": "http://www.nlm.nih.gov/research/umls/msh",
                                  "code": "D008581"
                                },
                                {
                                  "system": "http://www.nlm.nih.gov/research/umls/nanda-i",
                                  "code": "02899"
                                },
                                {
                                  "system": "http://ncimeta.nci.nih.gov",
                                  "code": "C26828"
                                },
                                {
                                  "system": "http://www.nlm.nih.gov/research/umls/nci_cptac",
                                  "code": "C26828"
                                },
                                {
                                  "system": "http://www.nlm.nih.gov/research/umls/nci_ctcae",
                                  "code": "E11458"
                                },
                                {
                                  "system": "http://www.nlm.nih.gov/research/umls/nci_fda",
                                  "code": "2389"
                                },
                                {
                                  "system": "http://www.nlm.nih.gov/research/umls/nci_nci-gloss",
                                  "code": "CDR0000471780"
                                },
                                {
                                  "system": "http://www.nlm.nih.gov/research/umls/nci_nichd",
                                  "code": "C26828"
                                },
                                {
                                  "system": "http://www.nlm.nih.gov/research/umls/nci_cadsr",
                                  "code": "C26828"
                                },
                                {
                                  "system": "http://www.nlm.nih.gov/research/umls/omim",
                                  "code": "MTHU005994"
                                },
                                {
                                  "system": "http://www.nlm.nih.gov/research/umls/psy",
                                  "code": "30660"
                                },
                                {
                                  "system": "http://www.nlm.nih.gov/research/umls/rcd",
                                  "code": "X000H"
                                },
                                {
                                  "system": "http://snomed.info/sct",
                                  "code": "M-40000"
                                },
                                {
                                  "system": "http://snomed.info/sct/900000000000207008",
                                  "code": "DA-10010"
                                },
                                {
                                  "system": "http://snomed.info/sct/731000124108",
                                  "code": "7180009"
                                },
                                {
                                  "system": "http://www.nlm.nih.gov/research/umls/who",
                                  "code": "0955"
                                }
                              ],
                              "text": "Meningitis"
                            },
                            "subject": {
                              "reference": "Patient/36ff1b88-4846-4211-bfff-a51e232e12f6",
                              "type": "Patient"
                            },
                            "encounter": {
                              "reference": "Encounter/1bf06e10-330f-455c-a60a-f4c0dde3d70c",
                              "type": "Encounter",
                              "display": "unknown"
                            }
                          }
                        },
                        {
                          "fullUrl": "Observation/91be6385-a16e-429c-8c21-18fc725e7899",
                          "resource": {
                            "resourceType": "Observation",
                            "id": "91be6385-a16e-429c-8c21-18fc725e7899",
                            "extension": [
                              {
                                "extension": [
                                  {
                                    "url": "offset",
                                    "valueInteger": 47
                                  },
                                  {
                                    "url": "length",
                                    "valueInteger": 5
                                  }
                                ],
                                "url": "http://hl7.org/fhir/StructureDefinition/derivation-reference"
                              }
                            ],
                            "status": "final",
                            "category": [
                              {
                                "coding": [
                                  {
                                    "system": "http://terminology.hl7.org/CodeSystem/observation-category",
                                    "code": "exam",
                                    "display": "Exam"
                                  }
                                ],
                                "text": "Exam"
                              }
                            ],
                            "code": {
                              "coding": [
                                {
                                  "system": "http://www.nlm.nih.gov/research/umls",
                                  "code": "C0015967",
                                  "display": "fever"
                                },
                                {
                                  "system": "http://www.nlm.nih.gov/research/umls/air",
                                  "code": "FEVER"
                                },
                                {
                                  "system": "http://www.nlm.nih.gov/research/umls/aod",
                                  "code": "0000004396"
                                },
                                {
                                  "system": "http://www.nlm.nih.gov/research/umls/bi",
                                  "code": "BI00751"
                                },
                                {
                                  "system": "http://www.nlm.nih.gov/research/umls/ccc",
                                  "code": "K25.2"
                                },
                                {
                                  "system": "http://www.nlm.nih.gov/research/umls/ccpss",
                                  "code": "1017166"
                                },
                                {
                                  "system": "http://www.nlm.nih.gov/research/umls/ccsr_10",
                                  "code": "SYM002"
                                },
                                {
                                  "system": "http://www.nlm.nih.gov/research/umls/ccsr_icd10cm",
                                  "code": "SYM002"
                                },
                                {
                                  "system": "http://www.nlm.nih.gov/research/umls/chv",
                                  "code": "0000005010"
                                },
                                {
                                  "system": "http://www.nlm.nih.gov/research/umls/costar",
                                  "code": "300"
                                },
                                {
                                  "system": "http://www.nlm.nih.gov/research/umls/cpm",
                                  "code": "65287"
                                },
                                {
                                  "system": "http://www.nlm.nih.gov/research/umls/csp",
                                  "code": "2871-4310"
                                },
                                {
                                  "system": "http://www.nlm.nih.gov/research/umls/cst",
                                  "code": "FEVER"
                                },
                                {
                                  "system": "http://www.nlm.nih.gov/research/umls/dxp",
                                  "code": "U001483"
                                },
                                {
                                  "system": "http://www.nlm.nih.gov/research/umls/go",
                                  "code": "GO:0001660"
                                },
                                {
                                  "system": "http://www.nlm.nih.gov/research/umls/hpo",
                                  "code": "HP:0001945"
                                },
                                {
                                  "system": "http://hl7.org/fhir/sid/icd-10",
                                  "code": "R50.9"
                                },
                                {
                                  "system": "http://hl7.org/fhir/sid/icd-10-am",
                                  "code": "R50.9"
                                },
                                {
                                  "system": "http://hl7.org/fhir/sid/icd-10-cm",
                                  "code": "R50.9"
                                },
                                {
                                  "system": "http://hl7.org/fhir/sid/icd-9-cm",
                                  "code": "780.60"
                                },
                                {
                                  "system": "http://www.nlm.nih.gov/research/umls/icnp",
                                  "code": "10041539"
                                },
                                {
                                  "system": "http://www.nlm.nih.gov/research/umls/icpc",
                                  "code": "A03"
                                },
                                {
                                  "system": "http://www.nlm.nih.gov/research/umls/icpc2eeng",
                                  "code": "A03"
                                },
                                {
                                  "system": "http://hl7.org/fhir/sid/icpc2icd10eng",
                                  "code": "MTHU041751"
                                },
                                {
                                  "system": "http://hl7.org/fhir/sid/icpc-2p",
                                  "code": "A03002"
                                },
                                {
                                  "system": "http://www.nlm.nih.gov/research/umls/lch",
                                  "code": "U001776"
                                },
                                {
                                  "system": "http://www.nlm.nih.gov/research/umls/lch_nw",
                                  "code": "sh85047994"
                                },
                                {
                                  "system": "http://loinc.org",
                                  "code": "MTHU013518"
                                },
                                {
                                  "system": "http://www.nlm.nih.gov/research/umls/mdr",
                                  "code": "10005911"
                                },
                                {
                                  "system": "http://www.nlm.nih.gov/research/umls/medcin",
                                  "code": "6005"
                                },
                                {
                                  "system": "http://www.nlm.nih.gov/research/umls/medlineplus",
                                  "code": "511"
                                },
                                {
                                  "system": "http://www.nlm.nih.gov/research/umls/msh",
                                  "code": "D005334"
                                },
                                {
                                  "system": "http://www.nlm.nih.gov/research/umls/mthicd9",
                                  "code": "780.60"
                                },
                                {
                                  "system": "http://www.nlm.nih.gov/research/umls/nanda-i",
                                  "code": "01128"
                                },
                                {
                                  "system": "http://ncimeta.nci.nih.gov",
                                  "code": "C3038"
                                },
                                {
                                  "system": "http://www.nlm.nih.gov/research/umls/nci_ctcae",
                                  "code": "E11102"
                                },
                                {
                                  "system": "http://www.nlm.nih.gov/research/umls/nci_fda",
                                  "code": "1858"
                                },
                                {
                                  "system": "http://www.nlm.nih.gov/research/umls/nci_gdc",
                                  "code": "C3038"
                                },
                                {
                                  "system": "http://www.nlm.nih.gov/research/umls/nci_nci-gloss",
                                  "code": "CDR0000450108"
                                },
                                {
                                  "system": "http://www.nlm.nih.gov/research/umls/nci_nichd",
                                  "code": "C3038"
                                },
                                {
                                  "system": "http://www.nlm.nih.gov/research/umls/nci_cadsr",
                                  "code": "C3038"
                                },
                                {
                                  "system": "http://www.nlm.nih.gov/research/umls/noc",
                                  "code": "070307"
                                },
                                {
                                  "system": "http://www.nlm.nih.gov/research/umls/omim",
                                  "code": "MTHU005439"
                                },
                                {
                                  "system": "http://www.nlm.nih.gov/research/umls/oms",
                                  "code": "50.03"
                                },
                                {
                                  "system": "http://www.nlm.nih.gov/research/umls/pcds",
                                  "code": "PRB_11020.02"
                                },
                                {
                                  "system": "http://www.nlm.nih.gov/research/umls/pdq",
                                  "code": "CDR0000775882"
                                },
                                {
                                  "system": "http://www.nlm.nih.gov/research/umls/psy",
                                  "code": "23840"
                                },
                                {
                                  "system": "http://www.nlm.nih.gov/research/umls/qmr",
                                  "code": "Q0200115"
                                },
                                {
                                  "system": "http://www.nlm.nih.gov/research/umls/rcd",
                                  "code": "X76EI"
                                },
                                {
                                  "system": "http://snomed.info/sct",
                                  "code": "F-03003"
                                },
                                {
                                  "system": "http://snomed.info/sct/900000000000207008",
                                  "code": "F-03003"
                                },
                                {
                                  "system": "http://snomed.info/sct/731000124108",
                                  "code": "386661006"
                                },
                                {
                                  "system": "http://www.nlm.nih.gov/research/umls/who",
                                  "code": "0725"
                                }
                              ],
                              "text": "fever"
                            },
                            "subject": {
                              "reference": "Patient/36ff1b88-4846-4211-bfff-a51e232e12f6",
                              "type": "Patient"
                            },
                            "encounter": {
                              "reference": "Encounter/1bf06e10-330f-455c-a60a-f4c0dde3d70c",
                              "type": "Encounter",
                              "display": "unknown"
                            },
                            "interpretation": [
                              {
                                "coding": [
                                  {
                                    "system": "http://terminology.hl7.org/CodeSystem/v3-ObservationInterpretation",
                                    "code": "POS",
                                    "display": "Positive"
                                  }
                                ],
                                "text": "Positive"
                              }
                            ]
                          }
                        },
                        {
                          "fullUrl": "MedicationStatement/655e22c1-e46f-4ea5-afa1-cf891b8fd907",
                          "resource": {
                            "resourceType": "MedicationStatement",
                            "id": "655e22c1-e46f-4ea5-afa1-cf891b8fd907",
                            "extension": [
                              {
                                "extension": [
                                  {
                                    "url": "offset",
                                    "valueInteger": 77
                                  },
                                  {
                                    "url": "length",
                                    "valueInteger": 10
                                  }
                                ],
                                "url": "http://hl7.org/fhir/StructureDefinition/derivation-reference"
                              }
                            ],
                            "status": "active",
                            "medicationCodeableConcept": {
                              "coding": [
                                {
                                  "system": "http://www.nlm.nih.gov/research/umls",
                                  "code": "C0030842",
                                  "display": "Penicillin"
                                },
                                {
                                  "system": "http://www.nlm.nih.gov/research/umls/aod",
                                  "code": "0000019206"
                                },
                                {
                                  "system": "http://www.whocc.no/atc",
                                  "code": "J01C"
                                },
                                {
                                  "system": "http://www.nlm.nih.gov/research/umls/ccpss",
                                  "code": "0014106"
                                },
                                {
                                  "system": "http://www.nlm.nih.gov/research/umls/chv",
                                  "code": "0000009423"
                                },
                                {
                                  "system": "http://www.nlm.nih.gov/research/umls/csp",
                                  "code": "0199-8025"
                                },
                                {
                                  "system": "http://www.nlm.nih.gov/research/umls/gs",
                                  "code": "4011"
                                },
                                {
                                  "system": "http://www.nlm.nih.gov/research/umls/lch",
                                  "code": "U003521"
                                },
                                {
                                  "system": "http://www.nlm.nih.gov/research/umls/lch_nw",
                                  "code": "sh85099402"
                                },
                                {
                                  "system": "http://loinc.org",
                                  "code": "LP14319-5"
                                },
                                {
                                  "system": "http://www.nlm.nih.gov/research/umls/medcin",
                                  "code": "40319"
                                },
                                {
                                  "system": "http://www.nlm.nih.gov/research/umls/mmsl",
                                  "code": "d00116"
                                },
                                {
                                  "system": "http://www.nlm.nih.gov/research/umls/msh",
                                  "code": "D010406"
                                },
                                {
                                  "system": "http://ncimeta.nci.nih.gov",
                                  "code": "C1500"
                                },
                                {
                                  "system": "http://www.nlm.nih.gov/research/umls/nci_dtp",
                                  "code": "NSC0402815"
                                },
                                {
                                  "system": "http://www.nlm.nih.gov/research/umls/nci_nci-gloss",
                                  "code": "CDR0000045296"
                                },
                                {
                                  "system": "http://www.nlm.nih.gov/research/umls/nddf",
                                  "code": "016121"
                                },
                                {
                                  "system": "http://www.nlm.nih.gov/research/umls/psy",
                                  "code": "37190"
                                },
                                {
                                  "system": "http://www.nlm.nih.gov/research/umls/rcd",
                                  "code": "x009C"
                                },
                                {
                                  "system": "http://snomed.info/sct",
                                  "code": "E-7260"
                                },
                                {
                                  "system": "http://snomed.info/sct/900000000000207008",
                                  "code": "C-54000"
                                },
                                {
                                  "system": "http://snomed.info/sct/731000124108",
                                  "code": "764146007"
                                },
                                {
                                  "system": "http://hl7.org/fhir/ndfrt",
                                  "code": "4019880"
                                }
                              ],
                              "text": "Penicillin"
                            },
                            "subject": {
                              "reference": "Patient/36ff1b88-4846-4211-bfff-a51e232e12f6",
                              "type": "Patient"
                            },
                            "context": {
                              "reference": "Encounter/1bf06e10-330f-455c-a60a-f4c0dde3d70c",
                              "type": "Encounter",
                              "display": "unknown"
                            }
                          }
                        },
                        {
                          "fullUrl": "List/4ab98bbd-d970-4eba-bc97-ea882ef0a49b",
                          "resource": {
                            "resourceType": "List",
                            "id": "4ab98bbd-d970-4eba-bc97-ea882ef0a49b",
                            "status": "current",
                            "mode": "snapshot",
                            "title": "General",
                            "subject": {
                              "reference": "Patient/36ff1b88-4846-4211-bfff-a51e232e12f6",
                              "type": "Patient"
                            },
                            "encounter": {
                              "reference": "Encounter/1bf06e10-330f-455c-a60a-f4c0dde3d70c",
                              "type": "Encounter",
                              "display": "unknown"
                            },
                            "entry": [
                              {
                                "item": {
                                  "reference": "Condition/c387a9b2-1095-48e1-9478-de662d3151d0",
                                  "type": "Condition",
                                  "display": "Meningitis"
                                }
                              },
                              {
                                "item": {
                                  "reference": "Observation/91be6385-a16e-429c-8c21-18fc725e7899",
                                  "type": "Observation",
                                  "display": "fever"
                                }
                              },
                              {
                                "item": {
                                  "reference": "MedicationStatement/655e22c1-e46f-4ea5-afa1-cf891b8fd907",
                                  "type": "MedicationStatement",
                                  "display": "Penicillin"
                                }
                              }
                            ]
                          }
                        }
                      ]
                    }
                  }
                ],
                "errors": [],
                "modelVersion": "2022-03-01"
              }
            }
          ]
        }
      }
    }
  ],
  "Variables": {}
}
